time,throttle_left,throttle_right,omega_left,omega_right,ticks_left,ticks_right,gyro_x,gyro_y,gyro_z,accel_x,accel_y,accel_z,ori_x,ori_y,ori_z,ori_w
1752506860.3498728,0,0,0.0,0.0,0,0,-0.03464012255866608,-0.01345635530163567,-0.040768759626737774,0.0550537109375,-0.035888671875,-1.2911376953125,-0.5459212507795961,-0.8374506261959109,0.0,0.02542511811807528
1752506860.4001255,0,0,0.0,0.0,0,0,-0.03583920372415837,-0.014122511504686942,-0.03983614094246599,0.0577392578125,-0.0364990234375,-1.2955322265625,-0.5341438008628366,-0.8449833371509087,0.0,0.026335526140864884
1752506860.4500954,0,0,0.0,0.0,0,0,-0.03410719759622506,-0.012656967857974145,-0.04263399699528134,0.052001953125,-0.0355224609375,-1.2913818359375,-0.5638909560375321,-0.825489853168346,0.0,0.02436169155006581
1752506860.5000994,0,0,0.0,0.0,0,0,-0.03530627876171736,-0.01372281778285618,-0.041035222107958284,0.0548095703125,-0.034912109375,-1.2955322265625,-0.5370714111064074,-0.8431645579957235,0.0,0.02505648642664061
1752506860.550098,0,0,0.0,0.0,0,0,-0.03450689131805583,-0.01372281778285618,-0.041168453348568536,0.0570068359375,-0.041748046875,-1.2919921875,-0.5906188213595426,-0.8064882736108375,0.0,0.02731432562000068
1752506860.6000745,0,0,0.0,0.0,0,0,-0.03370750387439431,-0.013989280264076687,-0.04036906590490701,0.055419921875,-0.0360107421875,-1.2884521484375,-0.5446796207615928,-0.8382527044941125,0.0,0.02562253178969048
1752506860.6500912,0,0,0.0,0.0,0,0,-0.03530627876171736,-0.013323124061025418,-0.03983614094246599,0.0560302734375,-0.0367431640625,-1.2884521484375,-0.5481928186508048,-0.8359485174774732,0.0,0.02597517481944014
1752506860.700083,0,0,0.0,0.0,0,0,-0.03557274124293786,-0.01532159267017923,-0.041834609551619814,0.0546875,-0.0374755859375,-1.2880859375,-0.5650910097873912,-0.8246279230773657,0.0,0.025708736619618304
1752506860.7501056,0,0,0.0,0.0,0,0,-0.03503981628049684,-0.01372281778285618,-0.04036906590490701,0.056884765625,-0.0340576171875,-1.2926025390625,-0.5135146212065064,-0.8576982562087169,0.0,0.025620989513769645
1752506860.8001044,0,0,0.0,0.0,0,0,-0.03450689131805583,-0.011324655451871604,-0.04063552838612752,0.056640625,-0.039794921875,-1.294189453125,-0.5746765220086683,-0.8179444975828897,0.0,0.026715050550111065
1752506860.850066,0,0,0.0,0.0,0,0,-0.03477335379927634,-0.014255742745297196,-0.040768759626737774,0.0557861328125,-0.0374755859375,-1.298583984375,-0.5574445648448579,-0.8298116160719873,0.0,0.02585031831377782
1752506860.900099,0,0,0.0,0.0,0,0,-0.0334410413931738,-0.0127901990985844,-0.041834609551619814,0.0533447265625,-0.033447265625,-1.2923583984375,-0.531060924666881,-0.8469840294869598,0.0,0.024338202193051224
1752506860.9500961,0,0,0.0,0.0,0,0,-0.035173047521107094,-0.012656967857974145,-0.03930321598002497,0.0570068359375,-0.0361328125,-1.294921875,-0.5351717879014924,-0.8443419761824223,0.0,0.026034298352018617
1752506861.0001032,0,0,0.0,0.0,0,0,-0.033041347671343035,-0.012923430339194655,-0.04023583466429676,0.0546875,-0.0343017578125,-1.285888671875,-0.5311909377412942,-0.8468809256516009,0.0,0.02507758818171924
1752506861.050101,0,0,0.0,0.0,0,0,-0.036105666205378875,-0.01438897398590745,-0.041168453348568536,0.0552978515625,-0.0350341796875,-1.29345703125,-0.5350141162726358,-0.8444647897961813,0.0,0.025280707733401315
1752506861.1000779,0,0,0.0,0.0,0,0,-0.035173047521107094,-0.013589586542245924,-0.03956967846124549,0.0548095703125,-0.0350341796875,-1.2921142578125,-0.5384040202931761,-0.8423115160684185,0.0,0.025147978659684447
1752506861.1501045,0,0,0.0,0.0,0,0,-0.03543951000232761,-0.01185758041431262,-0.03863705977697371,0.056884765625,-0.0380859375,-1.2938232421875,-0.5561507854921611,-0.8306611091004714,0.0,0.026427743460742927
1752506861.2000911,0,0,0.0,0.0,0,0,-0.03583920372415837,-0.01345635530163567,-0.04290045947650184,0.0560302734375,-0.037109375,-1.2933349609375,-0.551996636964443,-0.8334422906798663,0.0,0.02595497806283319
1752506861.2500927,0,0,0.0,0.0,0,0,-0.03490658503988659,-0.011990811654922875,-0.041035222107958284,0.0533447265625,-0.03564453125,-1.29345703125,-0.5554074661012585,-0.8312091187885272,0.0,0.024777962825453716
1752506861.3000758,0,0,0.0,0.0,0,0,-0.03490658503988659,-0.014655436467127957,-0.04036906590490701,0.057373046875,-0.0340576171875,-1.2933349609375,-0.5102847091196114,-0.8596194024595605,0.0,0.02576816939136166
1752506861.3500972,0,0,0.0,0.0,0,0,-0.036105666205378875,-0.015987748873230498,-0.03877029101758396,0.0572509765625,-0.0345458984375,-1.290771484375,-0.5164689068681192,-0.8559149021948689,0.0,0.02587563408301926
1752506861.400005,0.30000001192092896,0.30000001192092896,0.0,0.0,0,1,-0.036505359927209644,-0.016254211354451008,-0.04036906590490701,0.0560302734375,-0.0377197265625,-1.28955078125,-0.558256976180438,-0.8292555083068642,0.0,0.02616200467468153
1752506861.4500544,0.30000001192092896,0.30000001192092896,1.892834186553955,2.538923740386963,2,3,-0.01438897398590745,-0.021583460978861175,-0.08540122523117291,0.197509765625,-0.1402587890625,-1.1590576171875,-0.5759259872836175,-0.8110080482375049,0.0,0.10283580536653189
1752506861.5000794,0.30000001192092896,0.30000001192092896,1.5111286640167236,2.1746909618377686,3,5,-0.032774885190122525,-0.07127871372648598,-0.2586018380245033,0.049072265625,-0.027099609375,-1.330810546875,-0.4833156112583276,-0.8751931339002148,0.0,0.021047524507885777
1752506861.550096,0.30000001192092896,0.30000001192092896,1.8706424236297607,2.599473714828491,6,9,-0.028245023009373885,-0.1055191425633213,-0.29683920407964626,0.155029296875,-0.0830078125,-1.2874755859375,-0.4709419031465826,-0.8795532602884704,0.0,0.06782172348589605
1752506861.6001084,0.30000001192092896,0.30000001192092896,2.3359482288360596,3.104191780090332,9,13,-0.0834027566220191,-0.05462480865020421,-0.28284992381556956,0.033203125,-0.0291748046875,-1.350830078125,-0.659979113413328,-0.7511059366042897,0.0,0.016353649621730998
1752506861.6501093,0.30000001192092896,0.30000001192092896,3.3023746013641357,4.114348888397217,14,18,-0.05942113331217336,0.028245023009373885,-0.2897779483273028,0.1455078125,-0.10205078125,-1.3377685546875,-0.5729479942395832,-0.816930632934908,0.0,0.06599194548889462
1752506861.7001069,0.30000001192092896,0.30000001192092896,3.9499402046203613,4.986961364746094,18,24,-0.13589586542245924,0.0383705972957532,-0.318156202577287,0.0589599609375,-0.02099609375,-1.1339111328125,-0.33534387851726666,-0.9416924030455803,0.0,0.027566305288103055
1752506861.7501059,0.30000001192092896,0.30000001192092896,4.511727809906006,5.6377034187316895,23,30,-0.018385911204215073,0.09539356827694198,-0.4665758046171101,0.0753173828125,-0.0263671875,-1.281005859375,-0.330258712042039,-0.9433778950460094,0.0,0.03110193336263846
1752506861.8000977,0.30000001192092896,0.30000001192092896,4.794750213623047,6.197048664093018,28,37,-0.1871898930574071,-0.026513016881440577,-0.5158713636429041,0.0755615234375,-0.1419677734375,-1.2694091796875,-0.8810000195608673,-0.46890714712654935,0.0,0.06296866607601073
1752506861.8501024,0.30000001192092896,0.30000001192092896,4.976526737213135,6.297104358673096,34,44,-0.03370750387439431,-0.020517611053979142,-0.4142159270572802,0.0804443359375,-0.162841796875,-1.2823486328125,-0.8943498029819671,-0.4418114843816464,0.0,0.07029254707722025
1752506861.900003,0.30000001192092896,0.30000001192092896,5.235376358032227,6.5519304275512695,40,51,-0.08513476274995241,0.007061255752343471,-0.4553843804058487,0.0623779296875,0.0908203125,-1.238037109375,0.8234888075795727,-0.5655951353133893,0.0,0.04436582807750107
1752506861.9500947,0.30000001192092896,0.30000001192092896,5.311605930328369,6.589097499847412,45,58,-0.06341807053048099,0.021716692219471426,-0.4579157739774436,0.0213623046875,0.025146484375,-1.2366943359375,0.7620540720071377,-0.6473760320448986,0.0,0.013336583938270748
1752506862.000106,0.30000001192092896,0.30000001192092896,5.338169097900391,6.786164283752441,51,65,-0.17360030651516117,-0.010392036767599824,-0.5542419609386573,0.0430908203125,-0.006591796875,-1.6156005859375,-0.15120167053121636,-0.9884109203244328,0.0,0.013487305586253679
1752506862.0500956,0.30000001192092896,0.30000001192092896,5.383200168609619,7.134533405303955,57,73,-0.09499387455511121,-0.12843491594828502,-0.6183261876721895,0.0284423828125,-0.0784912109375,-1.3958740234375,-0.9397576933565772,-0.34053428079639586,0.0,0.029864383127844993
1752506862.1001246,0.30000001192092896,0.30000001192092896,5.4452805519104,7.176967620849609,63,80,-0.09779173060792655,-0.016653905076281773,-0.6048698323705539,0.0716552734375,-0.0748291015625,-1.30859375,-0.7216944326234349,-0.6910842283033545,0.0,0.03949348440813548
1752506862.1501107,0.30000001192092896,0.30000001192092896,5.469455718994141,7.126198768615723,69,88,-0.01052526800821008,0.0014655436467127959,-0.558771823119406,0.0570068359375,-0.11572265625,-1.31884765625,-0.8959952037191786,-0.44138160351989075,0.0,0.04873268909507619
1752506862.2001054,0.30000001192092896,0.30000001192092896,5.567338466644287,7.143093109130859,75,96,0.0058621745868511835,-0.0558238898156965,-0.4351332318330901,0.003662109375,0.0826416015625,-1.3238525390625,0.9985333316667877,-0.04424815354505706,0.0,0.031197539298449737
1752506862.2501016,0.30000001192092896,0.30000001192092896,5.546787738800049,7.168286323547363,81,103,-0.15508116407033584,-0.04170137831100955,-0.5561071983072009,-0.0152587890625,-0.080322265625,-1.3173828125,-0.981958181148441,0.18654220766497742,0.0,0.03098604904020258
1752506862.3001075,0.30000001192092896,0.30000001192092896,5.4784698486328125,7.281879425048828,87,111,-0.080205206847373,-0.02744563556571236,-0.5359892809750525,0.0733642578125,-0.0419921875,-1.1983642578125,-0.4964529517902571,-0.8673494884475133,0.0,0.03520414107144019
1752506862.3501048,0.30000001192092896,0.30000001192092896,5.518253803253174,7.1020379066467285,93,119,-0.07341041357625004,0.1261699848579107,-0.6068683009797078,0.1077880859375,0.0067138671875,-1.2578125,0.062110176681087245,-0.9971506547163643,0.0,0.04281235512524216
1752506862.4000967,0.30000001192092896,0.30000001192092896,5.368388652801514,7.1201348304748535,98,127,-0.15814548260437167,-0.10058958666074189,-0.6396431861698302,0.0570068359375,0.052734375,-1.29150390625,0.6787570202390937,-0.7337489084529092,0.0,0.030024103988474573
1752506862.4500897,0.30000001192092896,0.30000001192092896,4.954798221588135,6.739593505859375,103,134,-0.0383705972957532,0.05542419609386573,-0.6091332320700821,0.05859375,-0.0203857421875,-1.4090576171875,-0.3285174229867889,-0.9442416948123272,0.0,0.021998285661920997
1752506862.5000973,0.30000001192092896,0.30000001192092896,4.743380069732666,6.92245626449585,108,141,-0.031176110302799476,0.08047166932859352,-0.6963996946697986,0.075439453125,0.0042724609375,-1.2386474609375,0.05651746164921262,-0.9979368942632398,0.0,0.03045868672429755
1752506862.5501049,0.30000001192092896,0.30000001192092896,4.969208240509033,6.800034046173096,114,149,-0.050361408950676076,-0.07394333853869106,-0.6369785613576252,0.01611328125,-0.14599609375,-1.154296875,-0.9919748542507013,-0.10948217454940852,0.0,0.06324193221457272
1752506862.6000988,0.30000001192092896,0.30000001192092896,5.044829845428467,6.913776397705078,119,156,-0.008526799399056265,-0.021983154700691936,-0.7219800928669674,0.020263671875,0.0045166015625,-1.196044921875,0.21754478997363894,-0.9760117604222719,0.0,0.008678010874785957
1752506862.6500993,0.30000001192092896,0.30000001192092896,4.943861484527588,7.256416320800781,124,164,-0.15188361429568975,-0.025047473234727783,-0.7038606441439728,0.1060791015625,0.0169677734375,-1.5030517578125,0.15784567990769738,-0.9868193945308563,0.0,0.03566824795572203
1752506862.7001047,0.30000001192092896,0.30000001192092896,4.756924152374268,7.029500484466553,129,171,-0.13829402775344382,0.0738101072980808,-0.7968560500899302,0.03955078125,-0.110595703125,-1.398681640625,-0.9407747425265114,-0.33643600063861995,0.0,0.04187721693793091
1752506862.7501056,0.30000001192092896,0.30000001192092896,4.587831974029541,7.016889572143555,134,179,-0.05209341507860938,-0.023315467106794475,-0.654698316358789,0.0438232421875,-0.0047607421875,-1.1812744140625,-0.10798090198644864,-0.9939780464906426,0.0,0.01864853615807443
1752506862.8001063,0.30000001192092896,0.30000001192092896,4.648059844970703,6.340733051300049,139,185,0.055690658575086247,-0.07620826962906538,-0.5786232779703339,0.023681640625,0.0069580078125,-1.1826171875,0.2818832131382252,-0.9593919885757137,0.0,0.010433906632097208
1752506862.850062,0.30000001192092896,0.30000001192092896,4.715694427490234,6.135092735290527,144,192,-0.08113782553164478,-0.05222664631921963,-0.424075038862439,0.062744140625,0.0379638671875,-1.32470703125,0.5174765390695887,-0.8552506144108313,0.0,0.02764811137231565
1752506862.900092,0.30000001192092896,0.30000001192092896,4.791755676269531,5.88944673538208,149,198,-0.10272128651050597,-0.03810413481453269,-0.3322787140819739,0.138916015625,0.0604248046875,-1.37841796875,0.39827618122414055,-0.9156329176425695,0.0,0.05470323206969865
1752506862.9500954,0.30000001192092896,0.30000001192092896,4.752956390380859,5.820094585418701,154,204,-0.09192955602107537,-0.049695252747624805,-0.4054226651770034,0.078125,-0.05078125,-1.435791015625,-0.5447022676725558,-0.8380034887270089,0.0,0.032397414615015226
1752506863.0001006,0.30000001192092896,0.30000001192092896,4.798992156982422,5.771242618560791,160,211,-0.07194486992953725,-0.00479632466196915,-0.37771056713007056,0.109375,-0.1021728515625,-1.308837890625,-0.6815318762422349,-0.7295729523453315,0.0,0.05689999008660658
1752506863.0500615,0.30000001192092896,0.30000001192092896,4.781581878662109,5.813690662384033,165,217,-0.017453292519943295,0.037837672333312186,-0.3436033695338455,0.1033935546875,-0.015380859375,-1.345458984375,-0.1470305893274299,-0.9883722949232788,0.0,0.038758385287829315
1752506863.0999908,0.30000001192092896,0.30000001192092896,4.791110515594482,5.793509483337402,170,223,-0.007194486992953725,0.05489127113142472,-0.3583920372415837,0.1121826171875,0.0064697265625,-1.3092041015625,0.057522961777400725,-0.9974264504420993,0.0,0.04279701890120708
1752506863.1499624,0.30000001192092896,0.30000001192092896,4.816341876983643,5.761662006378174,175,229,-0.06408422673353224,-0.15095099561141798,-0.368517611527963,-0.0408935546875,-0.0428466796875,-1.2225341796875,-0.7231904266418474,0.69022448126786,0.0,0.024202732740256406
1752506863.2000735,0.30000001192092896,0.30000001192092896,4.807358264923096,5.699742794036865,180,235,-0.11564471684970061,-0.19105359903510447,-0.28911179212425153,0.000244140625,-0.0419921875,-1.3238525390625,-0.9998574168930303,-0.005813124516819944,0.0,0.015854130923796884
1752506863.2500932,0.30000001192092896,0.30000001192092896,4.798879146575928,5.612847805023193,185,241,-0.08500153150934216,-0.04023583466429676,-0.16600612580037669,0.1168212890625,0.03369140625,-1.5150146484375,0.27688507631856124,-0.9600689059306634,0.0,0.04002936893286596
1752506863.3001056,0.30000001192092896,0.30000001192092896,4.860365390777588,5.507790565490723,191,247,-0.10045635542013163,0.05515773361264523,-0.2363522208425909,0.0947265625,-0.044677734375,-1.4393310546875,-0.4263013847472077,-0.9038521162946261,0.0,0.03631089688150054
1752506863.3500974,0.30000001192092896,0.30000001192092896,4.790957450866699,5.399961948394775,196,253,-0.07460949474174233,0.03464012255866608,-0.25993415043060586,0.0791015625,0.09375,-1.36474609375,0.7635239694122269,-0.6442233491915664,0.0,0.04480429097082307
1752506863.4001036,0.30000001192092896,0.30000001192092896,4.736109733581543,5.4305644035339355,201,259,0.04383307816077362,-0.10218836154806493,-0.24074885178272928,0.0194091796875,-0.0147705078125,-1.21484375,-0.6055602348385297,-0.795736176358068,0.0,0.01003691273979159
1752506863.450094,0.30000001192092896,0.30000001192092896,4.79874849319458,5.4898200035095215,206,264,-0.0671485452675681,-0.05235987755982989,-0.3340107202099072,0.074951171875,-0.124755859375,-1.276611328125,-0.8558164501793021,-0.5141597851370758,0.0,0.05672670403164821
1752506863.500106,0.30000001192092896,0.30000001192092896,4.7835798263549805,5.627730369567871,211,271,-0.05156049011616837,-0.1552143953109461,-0.25993415043060586,-0.0439453125,-0.0179443359375,-1.0859375,-0.3779417877563502,0.9255717251175923,0.0,0.02184002587860672
1752506863.5500987,0.30000001192092896,0.30000001192092896,4.886524677276611,5.690215587615967,216,277,-0.14801990831799236,-0.13069984703865933,-0.3301470142322098,0.064697265625,0.0599365234375,-1.2823486328125,0.679200698085291,-0.7331494297051002,0.0,0.034326745309450096
1752506863.600099,0.30000001192092896,0.30000001192092896,4.862044334411621,5.792166233062744,222,283,0.07620826962906538,-0.0006661562030512709,-0.3755788672803065,0.0494384765625,-0.1063232421875,-1.3302001953125,-0.905891355555619,-0.42122387944893874,0.0,0.04394650511234368
1752506863.6500933,0.30000001192092896,0.30000001192092896,4.836514472961426,5.859396457672119,227,289,-0.11298009203749554,-0.04929555902579404,-0.4659096484140588,0.0023193359375,-0.0992431640625,-1.403076171875,-0.9991036147734016,-0.023349284970104096,0.0,0.03530974140526955
1752506863.6999862,0.30000001192092896,0.30000001192092896,4.871823787689209,6.072176456451416,232,296,-0.032108728987071254,-0.14908575824287443,-0.38930168506316265,0.0894775390625,0.0628662109375,-1.2764892578125,0.5743601836582898,-0.8174874070320901,0.0,0.042716727074594424
1752506863.7499561,0.30000001192092896,0.30000001192092896,5.122531414031982,6.149443626403809,238,302,-0.20011332339660176,-0.12390505376753637,-0.40995252735775206,0.0606689453125,0.0712890625,-1.4949951171875,0.7611808570623727,-0.6477857636301357,0.0,0.03126191420744735
1752506863.8000622,0.30000001192092896,0.30000001192092896,5.306558132171631,6.3815765380859375,243,309,0.14015926512198737,0.045298621807486415,-0.3205543649082715,0.0528564453125,0.04345703125,-1.336181640625,0.6348739266136341,-0.7721921635497291,0.0,0.025580458529399195
1752506863.8501525,0.30000001192092896,0.30000001192092896,5.375102996826172,6.357829570770264,249,316,-0.08540122523117291,-0.1247044412111979,-0.3348101076535687,0.0430908203125,0.0277099609375,-1.3123779296875,0.5407750897627858,-0.8409409986179004,0.0,0.019507412324026085
1752506863.9000764,0.30000001192092896,0.30000001192092896,5.233309268951416,6.290273666381836,255,323,0.062085758124378436,-0.029177641693645662,-0.4415283313823823,0.0340576171875,-0.0369873046875,-1.3692626953125,-0.7355167389545244,-0.6772579873541661,0.0,0.01835062077113817
1752506863.9501057,0.30000001192092896,0.30000001192092896,5.259804725646973,6.4152655601501465,260,330,-0.11404594196237756,0.08233690669713707,-0.3901010725068242,0.0,-0.1092529296875,-1.1480712890625,-0.9988750186109435,-0.0,0.0,0.047420430143423106
1752506864.000106,0.30000001192092896,0.30000001192092896,5.215157985687256,6.600800037384033,266,337,0.12110719771472103,-0.09872434929219834,-0.4764349164222689,-0.0252685546875,-0.0203857421875,-1.2371826171875,-0.6278453956841256,0.7782275263869101,0.0,0.013117785329651254
1752506864.0500622,0.30000001192092896,0.30000001192092896,5.262269973754883,6.606918811798096,272,344,-0.1404257276032079,0.03903675349880447,-0.39396477848452155,0.0609130859375,0.0477294921875,-1.280029296875,0.6164949416978075,-0.7867799895324961,0.0,0.030186668121248848
1752506864.1001017,0.30000001192092896,0.30000001192092896,5.226581573486328,6.3729023933410645,277,351,0.012656967857974145,-0.03437366007744557,-0.3114946405467742,0.0616455078125,0.164306640625,-1.4630126953125,0.9346045423011969,-0.35065029261671954,0.0,0.05965502324011646
1752506864.1500983,0.30000001192092896,0.30000001192092896,5.122398376464844,6.2048163414001465,282,357,-0.22449464042827827,0.0255803981971688,-0.42247626397511595,0.0867919921875,-0.009033203125,-1.5390625,-0.10347808533097484,-0.9942286306800421,0.0,0.028314586211424474
1752506864.2000966,0.30000001192092896,0.30000001192092896,5.025781154632568,6.26317024230957,288,364,-0.07807350699760894,0.02717917308449185,-0.3080306282909076,-0.00927734375,-0.088134765625,-1.3173828125,-0.9939446311418896,0.1046257506465147,0.0,0.03357860220238661
1752506864.2500954,0.30000001192092896,0.30000001192092896,5.204369068145752,6.188942909240723,294,371,-0.029177641693645662,0.057822358424850305,-0.17613170008675602,0.0472412109375,-0.004638671875,-1.3387451171875,-0.09770591013146175,-0.9950575584440973,0.0,0.017720341663035405
1752506864.2999856,0.30000001192092896,0.30000001192092896,5.408764839172363,5.7911505699157715,299,377,-0.01705359879811253,-0.061952526883768184,-0.06488361417719378,0.0653076171875,-0.0830078125,-1.251220703125,-0.7852205222037741,-0.6177837932044399,0.0,0.04209413693100791
1752506864.3500621,0.30000001192092896,0.30000001192092896,5.507603168487549,5.7624688148498535,306,383,-0.03424042883683532,0.12950076587316706,-0.08899846872764978,0.02783203125,0.0635986328125,-1.255126953125,0.9157673774100971,-0.40075808454798867,0.0,0.027623688038707912
1752506864.4000719,0.30000001192092896,0.30000001192092896,5.841686248779297,6.144111156463623,312,390,-0.06528330789902453,0.223828484225227,-0.03983614094246599,-0.066162109375,-0.0531005859375,-1.326904296875,-0.6256036796893092,0.7794878031990933,0.0,0.031918656347782175
1752506864.4500663,0.30000001192092896,0.30000001192092896,5.693244457244873,5.835375785827637,317,396,-0.04663093421358895,-0.05076110267250683,-0.0511607963943376,0.0023193359375,-0.0791015625,-1.3287353515625,-0.9991283047673913,-0.029295428689167343,0.0,0.029739005877075037
1752506864.5000958,0.30000001192092896,0.30000001192092896,5.253199577331543,5.592067718505859,323,402,-0.057689127184240054,0.16880398185319204,-0.1482863707992129,0.0579833984375,0.057861328125,-1.3209228515625,0.7060226258045804,-0.7075121250151385,0.0,0.030961989738524598
1752506864.5501044,0.30000001192092896,0.30000001192092896,5.260035037994385,5.789425849914551,329,408,-0.06328483928987072,-0.07194486992953725,-0.18825574298228911,0.0362548828125,-0.031005859375,-1.3067626953125,-0.649839881689028,-0.759852145124572,0.0,0.018244059744925604
1752506864.6001122,0.30000001192092896,0.30000001192092896,5.295713424682617,5.781320095062256,335,414,0.029444104174866172,0.06475038293658353,-0.2689938747921031,0.07568359375,-0.018798828125,-1.2642822265625,-0.2409477399974539,-0.9700493428468923,0.0,0.03079706207468079
1752506864.650086,0.30000001192092896,0.30000001192092896,5.184200286865234,5.816635608673096,340,420,-0.03943644722063524,0.05555742733447598,-0.27658805550688764,0.1014404296875,-0.07763671875,-1.18603515625,-0.606894983249421,-0.7929712752834416,0.0,0.0536193610744961
1752506864.7001028,0.30000001192092896,0.30000001192092896,5.012885570526123,5.7829132080078125,345,427,0.0191852986478766,0.16773813192830997,-0.33147932663831237,0.032470703125,-0.0894775390625,-1.1055908203125,-0.9391513020378675,-0.34081070442301875,0.0,0.04292896028631812
1752506864.7501,0.30000001192092896,0.30000001192092896,5.124166965484619,5.958695888519287,351,433,-0.005595712105630674,-0.011724349173702367,-0.328148545623056,-0.0084228515625,0.026123046875,-1.2484130859375,0.9516930387267133,0.3068542975333795,-0.0,0.01099091099095376
1752506864.8001099,0.30000001192092896,0.30000001192092896,5.066587448120117,6.1828413009643555,356,440,0.0035972434964768626,-0.13176569696354137,-0.288845329643031,0.091064453125,0.0244140625,-1.28857421875,0.25877916128332024,-0.9652462715867846,0.0,0.036510010590425114
1752506864.850106,0.30000001192092896,0.30000001192092896,5.076061725616455,6.047525882720947,362,446,-0.1697366005374638,-0.09872434929219834,-0.29310872934255916,0.0250244140625,-0.03466796875,-1.207275390625,-0.8107027577836695,-0.5851903709353953,0.0,0.01769938661218424
1752506864.9000783,0.30000001192092896,0.30000001192092896,5.395356178283691,6.133910655975342,368,453,-0.032508422708902016,-0.002398162330984575,-0.24487902024164715,0.034423828125,-0.113525390625,-1.2159423828125,-0.9558412601762448,-0.2898357369566678,0.0,0.048607930705528005
1752506864.9500976,0.30000001192092896,0.30000001192092896,5.431692123413086,6.155058860778809,373,460,-0.00985911180515881,0.0002664624812205083,-0.3877029101758396,0.0269775390625,-0.0826416015625,-1.2779541015625,-0.9500826872082061,-0.31014516081685906,0.0,0.033953890633010755
1752506865.000095,0.30000001192092896,0.30000001192092896,5.3547563552856445,6.311501979827881,379,467,-0.05529096485325548,0.0305099540997482,-0.4302036759305107,0.03955078125,-0.0833740234375,-1.30078125,-0.9029288553189779,-0.42832935449977866,0.0,0.03540404364141625
1752506865.0500407,0.30000001192092896,0.30000001192092896,5.351193904876709,6.4043660163879395,385,473,-0.0287779479718149,-0.13749464030978228,-0.18412557452337125,0.0985107421875,0.183837890625,-1.3848876953125,0.8789670586962486,-0.471000276472691,0.0,0.07467027045293148
1752506865.100089,0.30000001192092896,0.30000001192092896,5.467899322509766,6.003204822540283,391,479,-0.12017457903044926,-0.10405359891660851,-0.15761255764193066,0.1446533203125,0.0235595703125,-1.401123046875,0.1605328648468214,-0.9856551546294474,0.0,0.05208757487608963
1752506865.1501098,0.30000001192092896,0.30000001192092896,5.433826446533203,5.796545028686523,396,486,0.02904441045303541,0.09432771835205994,-0.19078713655388396,0.0830078125,-0.0291748046875,-1.403564453125,-0.3314236831278479,-0.9429627804474334,0.0,0.03129755506133276
1752506865.2001028,0.30000001192092896,0.30000001192092896,5.43818998336792,6.155142307281494,402,492,-0.05475803989081446,0.09699234316426504,-0.279918836522144,0.134033203125,0.035400390625,-1.380615234375,0.255040444011375,-0.9656358880154818,0.0,0.05001703404873784
1752506865.2500916,0.30000001192092896,0.30000001192092896,5.399219036102295,6.15529203414917,408,499,0.00479632466196915,0.05622358353752725,-0.2993705976512411,0.0155029296875,-0.0277099609375,-1.371337890625,-0.8726441580416631,-0.48821941881626085,0.0,0.011574650166180454
1752506865.300079,0.30000001192092896,0.30000001192092896,5.369461536407471,6.1372971534729,414,506,0.13642879038490024,0.02464777951289702,-0.36079019957256825,0.0391845703125,-0.1046142578125,-1.285400390625,-0.9355842462251924,-0.3504347059956672,0.0,0.043331686431169594
1752506865.3501012,0.30000001192092896,0.30000001192092896,5.285587310791016,6.011740684509277,419,512,-0.11497856064664934,-0.016787136316892024,-0.35506125622632734,0.018310546875,-0.064208984375,-1.2320556640625,-0.9613094833343656,-0.2741376853615111,0.0,0.02706670862975641
1752506865.400095,0.30000001192092896,0.30000001192092896,5.253572463989258,6.091711521148682,425,519,0.09725880564548554,-0.03264165394951227,-0.28165084265007734,-0.009033203125,-0.09765625,-1.1005859375,-0.9947661430707169,0.0920158682340413,0.0,0.04442297371119598
1752506865.4500728,0.30000001192092896,0.30000001192092896,5.309429168701172,5.975401401519775,431,525,-0.15441500786728457,-0.07301071985441929,-0.3288147018261073,-0.0501708984375,-0.0765380859375,-1.201171875,-0.835730170686029,0.5478231262391673,0.0,0.038011895015195606
1752506865.4999807,0.30000001192092896,0.30000001192092896,5.3686347007751465,6.015502452850342,437,531,0.14349004613724373,0.05955436455278361,-0.16440735091305364,0.0255126953125,-0.06298828125,-1.1376953125,-0.926445160783817,-0.37524619884460797,0.0,0.02982707348903913
1752506865.5500448,0.30000001192092896,0.30000001192092896,5.310123443603516,5.83148193359375,442,538,-0.09286217470534716,-0.05955436455278361,-0.1866569680949661,0.0789794921875,-0.0032958984375,-1.28125,-0.04167499019130511,-0.9986562464360891,0.0,0.030804166061354842
1752506865.6001048,0.30000001192092896,0.30000001192092896,5.198457717895508,5.7721967697143555,448,544,-0.06874732015489114,0.06088667695888615,-0.1482863707992129,0.0943603515625,0.1353759765625,-1.3797607421875,0.8189245954780252,-0.5708103807975774,0.0,0.05948122472576893
1752506865.650079,0.30000001192092896,0.30000001192092896,5.19626522064209,5.681361675262451,453,550,-0.026379785640830326,-0.0305099540997482,-0.1955834612158531,0.1070556640625,-0.03369140625,-1.2972412109375,-0.2999148131679659,-0.9529901853199496,0.0,0.043137124687118354
1752506865.7000976,0.30000001192092896,0.30000001192092896,5.049152851104736,5.587731838226318,458,556,-0.17160183790600736,-0.06475038293658353,-0.22476110290949877,0.0435791015625,-0.011962890625,-1.322509765625,-0.2646783758309803,-0.9641855119557141,0.0,0.017077936121557672
1752506865.7500894,0.30000001192092896,0.30000001192092896,5.042703628540039,5.754558086395264,464,562,-0.0002664624812205083,0.03317457891195329,-0.25367228212192394,0.09228515625,-0.05224609375,-1.1251220703125,-0.49212022981633435,-0.8692590975260486,0.0,0.04697127604949794
1752506865.8000934,0.30000001192092896,0.30000001192092896,5.039850234985352,5.674718856811523,469,568,-0.1325650844072029,-0.01945176112909711,-0.3655865242345374,0.0938720703125,0.06103515625,-1.249755859375,0.5445593636025947,-0.8375323012207908,0.0,0.0446625561801347
1752506865.8500905,0.30000001192092896,0.30000001192092896,4.989084243774414,5.834914207458496,475,575,-0.001732006127933304,-0.06608269534268607,-0.32694946445756373,0.048828125,-0.0389404296875,-1.195556640625,-0.6232902342070116,-0.7815551526106728,0.0,0.02609266889140857
1752506865.900091,0.30000001192092896,0.30000001192092896,5.025994300842285,5.898472785949707,480,581,0.11084839218773146,0.019318529888486854,-0.3935650847626908,0.0008544921875,-0.1278076171875,-1.2196044921875,-0.9986151656628975,-0.006676510181127299,0.0,0.05218405043559579
1752506865.9501007,0.30000001192092896,0.30000001192092896,5.057758808135986,6.13386344909668,485,587,0.010658499248820334,-0.2041102606149094,-0.351730475211071,0.0157470703125,-0.0531005859375,-1.1605224609375,-0.9584588463889255,-0.28423262341188826,0.0,0.023842306247630528
1752506866.0001087,0.30000001192092896,0.30000001192092896,5.046931743621826,6.060443878173828,491,594,-0.0511607963943376,0.05555742733447598,-0.3282817768636663,0.046630859375,0.08935546875,-1.4412841796875,0.8860015239702611,-0.4623669155145352,0.0,0.0349017902112403
1752506866.0500805,0.30000001192092896,0.30000001192092896,5.043752670288086,6.157047271728516,496,601,-0.05635681477813751,-0.05222664631921963,-0.36332159314416307,0.0654296875,-0.019287109375,-1.3990478515625,-0.2826637058149155,-0.9589097868151565,0.0,0.024356727306635836
1752506866.0999892,0.30000001192092896,0.30000001192092896,4.921663761138916,5.87996244430542,501,607,-0.11884226662434672,-0.06301837680865022,-0.3940980097251318,-0.0035400390625,-0.0003662109375,-1.20751953125,-0.1028990393554737,0.9946907137695792,0.0,0.0014736486303983246
1752506866.149949,0.30000001192092896,0.30000001192092896,4.935680866241455,6.133514881134033,507,614,-0.057156202221799034,-0.02598009191899956,-0.4188790204786391,0.068359375,-0.09912109375,-1.37646484375,-0.8224294955892175,-0.5671927555787707,0.0,0.04361310357938336
1752506866.2000587,0.30000001192092896,0.30000001192092896,5.099637031555176,6.1424102783203125,512,620,-0.06128637068071692,0.10924961730040841,-0.3116278717873845,0.1925048828125,0.0819091796875,-1.447509765625,0.3905157841785975,-0.9177993914301762,0.0,0.07170564411378937
1752506866.2500777,0.30000001192092896,0.30000001192092896,5.2284770011901855,6.316756725311279,518,627,-0.0033307810152563544,0.12457120997058764,-0.43593261927675164,-0.004638671875,-0.050048828125,-1.3511962890625,-0.9955603421798699,0.09227144634837818,0.0,0.018589923815843137
1752506866.300101,0.30000001192092896,0.30000001192092896,5.2358551025390625,6.213706970214844,523,633,-0.021583460978861175,-0.0014655436467127959,-0.4628453298800229,0.0682373046875,-0.1390380859375,-1.2869873046875,-0.8961038120418054,-0.43979107193272104,0.0,0.059847899649130704
1752506866.350105,0.30000001192092896,0.30000001192092896,4.987054347991943,6.016686916351318,529,640,-0.041434915829789046,0.07301071985441929,-0.4372649316828542,0.0147705078125,-0.1231689453125,-1.1502685546875,-0.9914540936561608,-0.11889588239087755,0.0,0.053689378120215424
1752506866.399995,0.0,0.0,4.921333312988281,6.158811569213867,534,646,0.10138897410440342,0.0063950995492922,-0.4068882088237162,0.0662841796875,-0.0714111328125,-1.088134765625,-0.732196828845212,-0.6796288513896582,0.0,0.044636623839500414
1752506866.450037,0.0,0.0,4.410654544830322,5.354413032531738,536,650,-0.0750091884635731,0.03357427263378405,-0.6991975507226139,-0.088623046875,-0.0869140625,-1.3192138671875,-0.6994191745041859,0.7131717987219649,0.0,0.046891404794060905
1752506866.5000997,0.0,0.0,4.410654544830322,4.573044300079346,536,652,0.06794793271122962,0.19931393595294022,-0.2913767232146259,-0.04443359375,-0.0582275390625,-1.3577880859375,-0.794683806056057,0.6064253782062993,0.0,0.02694269956047999
1752506866.55008,0.0,0.0,0.0,4.129674911499023,536,653,-0.012523736617363892,0.036771822408430146,-0.07607503838845513,0.078857421875,-0.01123046875,-1.33447265625,-0.1409295994081571,-0.9895708828007554,0.0,0.029804629230874447
1752506866.6000984,0.0,0.0,0.0,4.129674911499023,536,653,-0.062085758124378436,-0.02624655440022007,-0.027045941843881597,0.0819091796875,-0.0350341796875,-1.2706298828125,-0.39301687148906994,-0.9188652291608568,0.0,0.034991847109147343
1752506866.6500423,0.0,0.0,0.0,0.0,536,653,-0.01705359879811253,-0.00013323124061025415,-0.04849617158213252,0.0419921875,-0.017822265625,-1.300048828125,-0.3906272051946803,-0.9203819081299317,0.0,0.017536526135448042
1752506866.7000213,0.0,0.0,0.0,0.0,536,653,-0.0464977029729787,-0.022782542144353463,-0.0430336907171121,0.0650634765625,-0.0313720703125,-1.2822265625,-0.43415175918504967,-0.9004003410335855,0.0,0.02813318082140721
1752506866.750078,0.0,0.0,0.0,0.0,536,653,-0.02598009191899956,-0.0037304747370871167,-0.04583154676992743,0.0540771484375,-0.0269775390625,-1.29052734375,-0.4462832603568005,-0.8945859019821838,0.0,0.023394775058267925
1752506866.8001077,0.0,0.0,0.0,0.0,536,653,-0.044898928085655654,-0.02011791733214838,-0.040901990867348026,0.0650634765625,-0.033447265625,-1.2900390625,-0.4570138115183687,-0.8890086187565347,0.0,0.028320520087935456
1752506866.850067,0.0,0.0,0.0,0.0,536,653,-0.025447166956558548,-0.007993874436615249,-0.04343338443894285,0.062744140625,-0.0281982421875,-1.2938232421875,-0.4097773488834713,-0.9117989494636547,0.0,0.026555603909714665
1752506866.9000926,0.0,0.0,0.0,0.0,536,653,-0.04210107203284032,-0.018652373685435583,-0.0415681470703993,0.061767578125,-0.0294189453125,-1.290771484375,-0.42985212317684396,-0.9025110967945356,0.0,0.026473994090124915
1752506866.9500966,0.0,0.0,0.0,0.0,536,653,-0.02691271060327134,-0.011724349173702367,-0.041967840792230066,0.0491943359375,-0.0257568359375,-1.2965087890625,-0.4637364755829455,-0.8857146903314078,0.0,0.021400199649691386
1752506867.0000644,0.0,0.0,0.0,0.0,536,653,-0.04170137831100955,-0.016120980113840753,-0.03877029101758396,0.061279296875,-0.0289306640625,-1.2938232421875,-0.4267783555380777,-0.9039777826165191,0.0,0.026161111978200594
1752506867.0500596,0.0,0.0,0.0,0.0,536,653,-0.03170903526524049,-0.011591117933092112,-0.04170137831100955,0.0548095703125,-0.030029296875,-1.292724609375,-0.48035334188114853,-0.8767424817261614,0.0,0.024151349450162982
1752506867.1001024,0.0,0.0,0.0,0.0,536,653,-0.03930321598002497,-0.015188361429568975,-0.03970290970185574,0.0604248046875,-0.0267333984375,-1.291259765625,-0.4044629703020023,-0.9141971246552107,0.0,0.02556018244509433
1752506867.150101,0.0,0.0,0.0,0.0,536,653,-0.033307810152563545,-0.01345635530163567,-0.041834609551619814,0.060791015625,-0.0302734375,-1.2939453125,-0.4456218315535425,-0.8948373875550975,0.0,0.02621513067742826
1752506867.2001,0.0,0.0,0.0,0.0,536,653,-0.037171516130260915,-0.013589586542245924,-0.041301684589178794,0.060546875,-0.026611328125,-1.2913818359375,-0.40223577468862926,-0.9151786433282574,0.0,0.02558187554672995
1752506867.2501101,0.0,0.0,0.0,0.0,536,653,-0.035972434964768624,-0.011724349173702367,-0.041168453348568536,0.05810546875,-0.0301513671875,-1.29736328125,-0.4604429651162895,-0.8873313821674242,0.0,0.02520504107847632
1752506867.2999942,0.0,0.0,0.0,0.0,536,653,-0.036105666205378875,-0.013989280264076687,-0.041035222107958284,0.06103515625,-0.026123046875,-1.2940673828125,-0.3933462122587421,-0.9190332062120142,0.0,0.025626610805294832
1752506867.3500478,0.0,0.0,0.0,0.0,536,653,-0.036638591167819895,-0.012523736617363892,-0.040502297145517265,0.0599365234375,-0.0274658203125,-1.2940673828125,-0.4164560291618533,-0.9087996014154223,0.0,0.025449169768606828
1752506867.400079,0.0,0.0,0.0,0.0,536,653,-0.03503981628049684,-0.013056661579804908,-0.041301684589178794,0.06201171875,-0.027099609375,-1.29638671875,-0.4003041510044029,-0.9160113004965615,0.0,0.026074586310090683
1752506867.4500964,0.0,0.0,0.0,0.0,536,653,-0.03530627876171736,-0.014788667707738212,-0.041301684589178794,0.0615234375,-0.0311279296875,-1.294189453125,-0.45129769726418145,-0.8919766251809703,0.0,0.02660993376192578
1752506867.5000792,0.0,0.0,0.0,0.0,536,653,-0.036638591167819895,-0.013589586542245924,-0.041301684589178794,0.0621337890625,-0.025634765625,-1.2969970703125,-0.3812613267494101,-0.9241048348354749,0.0,0.02588541981461957
1752506867.5501027,0.0,0.0,0.0,0.0,536,653,-0.036638591167819895,-0.014122511504686942,-0.041168453348568536,0.0550537109375,-0.0281982421875,-1.295166015625,-0.45574609921912224,-0.8897900032373338,0.0,0.02385881777163043
1752506867.6000853,0.0,0.0,0.0,0.0,536,653,-0.03743797861148142,-0.012923430339194655,-0.04036906590490701,0.061767578125,-0.0318603515625,-1.291748046875,-0.45825365644603394,-0.8884151347191309,0.0,0.02687256511441855
1752506867.6501026,0.0,0.0,0.0,0.0,536,653,-0.036505359927209644,-0.013856049023466432,-0.03903675349880447,0.077392578125,-0.028564453125,-1.2943115234375,-0.3460785388156373,-0.9376657846543336,0.0,0.031820139217266535
1752506867.700099,0.0,0.0,0.0,0.0,536,653,-0.03477335379927634,-0.01438897398590745,-0.04023583466429676,0.0595703125,-0.025390625,-1.2958984375,-0.3919762677263561,-0.91963662812722,0.0,0.02496152531624586
1752506867.7501018,0.0,0.0,0.0,0.0,536,653,-0.036372128686599385,-0.012656967857974145,-0.041434915829789046,0.061767578125,-0.026611328125,-1.2935791015625,-0.39553755141168745,-0.9180825734601553,0.0,0.025969861994730732
1752506867.800099,0.0,0.0,0.0,0.0,536,653,-0.03424042883683532,-0.013989280264076687,-0.04063552838612752,0.0592041015625,-0.0274658203125,-1.294677734375,-0.42070307476183744,-0.9068488500421829,0.0,0.02518106556733418
1752506867.8501058,0.0,0.0,0.0,0.0,536,653,-0.036771822408430146,-0.014788667707738212,-0.041301684589178794,0.0615234375,-0.0245361328125,-1.295654296875,-0.3703164243519232,-0.9285546162854194,0.0,0.025535669762985103
1752506867.8999813,0.0,0.0,0.0,0.0,536,653,-0.03490658503988659,-0.013856049023466432,-0.0415681470703993,0.062744140625,-0.0252685546875,-1.294189453125,-0.373440392038019,-0.9272867705678345,0.0,0.026105913589975816
1752506867.9500496,0.0,0.0,0.0,0.0,536,653,-0.03503981628049684,-0.014255742745297196,-0.040901990867348026,0.0616455078125,-0.0286865234375,-1.292236328125,-0.42175664366253535,-0.9063281065939589,0.0,0.02628110964785309
1752506868.000069,0.0,0.0,0.0,0.0,536,653,-0.03397396635561481,-0.0127901990985844,-0.041434915829789046,0.056884765625,-0.029296875,-1.2899169921875,-0.4577246225658152,-0.8887486421486245,0.0,0.024779446643498203
1752506868.0501056,0.0,0.0,0.0,0.0,536,653,-0.03557274124293786,-0.012257274136143382,-0.04170137831100955,0.0634765625,-0.02734375,-1.2867431640625,-0.3954814994608587,-0.9180820523198505,0.0,0.026827761598056533
1752506868.1000693,0.0,0.0,0.0,0.0,536,653,-0.036105666205378875,-0.012923430339194655,-0.04063552838612752,0.0623779296875,-0.0260009765625,-1.2900390625,-0.38461190671833234,-0.922707438183417,0.0,0.026166098896941804
1752506868.150091,0.0,0.0,0.0,0.0,536,653,-0.03397396635561481,-0.011591117933092112,-0.04036906590490701,0.0587158203125,-0.0294189453125,-1.291748046875,-0.4478124600797225,-0.8937667771715623,0.0,0.025395838669079032
1752506868.2000778,0.0,0.0,0.0,0.0,536,653,-0.036238897445989134,-0.013589586542245924,-0.041967840792230066,0.0592041015625,-0.0458984375,-1.290771484375,-0.6124415451757713,-0.7899844399208752,0.0,0.028981691213845664
1752506868.2501004,0.0,0.0,0.0,0.0,536,653,-0.036638591167819895,-0.012656967857974145,-0.0415681470703993,0.0604248046875,-0.0263671875,-1.29296875,-0.3998147122456652,-0.9162420488963162,0.0,0.025469662467260745
1752506868.3000793,0.0,0.0,0.0,0.0,536,653,-0.035173047521107094,-0.012923430339194655,-0.041035222107958284,0.06298828125,-0.0283203125,-1.311279296875,-0.40992876197962835,-0.9117381085408977,0.0,0.026306492280721044
1752506868.3500926,0.0,0.0,0.0,0.0,536,653,-0.03397396635561481,-0.013989280264076687,-0.04023583466429676,0.0604248046875,-0.0257568359375,-1.2906494140625,-0.3919974915519296,-0.9196149683327258,0.0,0.02542197150879999
1752506868.4000728,0.0,0.0,0.0,0.0,536,653,-0.03503981628049684,-0.011990811654922875,-0.040901990867348026,0.0635986328125,-0.0269775390625,-1.300537109375,-0.39036700043106876,-0.9202769557673611,0.0,0.02653167273295096
1752506868.4500766,0.0,0.0,0.0,0.0,536,653,-0.03464012255866608,-0.01345635530163567,-0.041434915829789046,0.05615234375,-0.0281982421875,-1.2935791015625,-0.44863494935691456,-0.8933856134380117,0.0,0.02426577667221597
1752506868.500069,0.0,0.0,0.0,0.0,536,653,-0.03450689131805583,-0.013323124061025418,-0.04063552838612752,0.047119140625,-0.02587890625,-1.2962646484375,-0.4812922830073463,-0.8763151945322436,0.0,0.020722406942544982
1752506868.5501027,0.0,0.0,0.0,0.0,536,653,-0.03410719759622506,-0.013189892820415163,-0.039969372183076245,0.0614013671875,-0.0274658203125,-1.2926025390625,-0.4081883073092857,-0.9125276381180919,0.0,0.02599260369022093
1752506868.600084,0.0,0.0,0.0,0.0,536,653,-0.0011990811654922875,-0.013856049023466432,-0.041434915829789046,0.05908203125,-0.0247802734375,-1.2921142578125,-0.38666027989258633,-0.9218895343251813,0.0,0.024769223950041035
1752506868.650102,0.0,0.0,0.0,0.0,536,653,-0.036505359927209644,-0.013989280264076687,-0.04023583466429676,0.0616455078125,-0.028564453125,-1.288330078125,-0.4202790599468723,-0.9070125011673953,0.0,0.026340738338909323
1752506868.7000844,0.0,0.0,0.0,0.0,536,653,-0.03450689131805583,-0.01212404289553313,-0.04170137831100955,0.0582275390625,-0.0308837890625,-1.2923583984375,-0.46841626011394094,-0.88314053784328,0.0,0.025475432847174094
1752506868.7500932,0.0,0.0,0.0,0.0,536,653,-0.035173047521107094,-0.013189892820415163,-0.040502297145517265,0.0545654296875,-0.02880859375,-1.2939453125,-0.46675505388902944,-0.8840657164762548,0.0,0.023822859198163213
1752506868.8000736,0.0,0.0,0.0,0.0,536,653,-0.03503981628049684,-0.01532159267017923,-0.039969372183076245,0.0635986328125,-0.0283203125,-1.312255859375,-0.4066462664901862,-0.9132013139714958,0.0,0.026498568080668177
1752506868.850095,0.0,0.0,0.0,0.0,536,653,-0.03770444109270193,-0.012390505376753637,-0.04236753451406082,0.0618896484375,-0.0277099609375,-1.292236328125,-0.4085019647843626,-0.9123810402893033,0.0,0.02621034314776751
1752506868.9000375,0.5,0.30000001192092896,0.0,0.0,536,653,-0.03437366007744557,-0.014921898948348467,-0.041301684589178794,0.061279296875,-0.02734375,-1.2958984375,-0.40735199221656015,-0.9129049111281838,0.0,0.025864602746654874
1752506868.9499743,0.5,0.30000001192092896,2.474733352661133,0.019205663353204727,539,654,-0.057689127184240054,0.1590781012886435,-0.10005666169830088,0.18408203125,-0.1075439453125,-1.4940185546875,-0.5031742342957319,-0.8612789390669283,0.0,0.07081157434099582
1752506869.0000708,0.5,0.30000001192092896,2.699798107147217,1.584769606590271,542,657,-0.03290811643073278,-0.0767411945915064,-0.1394931089189361,0.2247314453125,-0.105224609375,-1.38671875,-0.42238228349966855,-0.9020948769407076,0.0,0.0884196787086171
1752506869.0501041,0.5,0.30000001192092896,2.856273889541626,2.6558849811553955,545,661,-0.024514548272286763,0.1546814703485051,-0.02971056665608668,0.1865234375,-0.0028076171875,-1.2772216796875,-0.015011097323085159,-0.9972589873771357,0.0,0.07245121843479782
1752506869.1000957,0.5,0.30000001192092896,3.7047221660614014,3.6341207027435303,550,665,-0.06928024511733216,-0.1729341503121099,-0.11364624824054681,0.0269775390625,-0.0267333984375,-1.1650390625,-0.7037919510801874,-0.7102192748343443,0.0,0.01629328845019216
1752506869.1501005,0.5,0.30000001192092896,4.913844585418701,4.978819370269775,556,671,-0.06408422673353224,-0.022782542144353463,-0.12164012267716205,0.06787109375,0.0025634765625,-1.2816162109375,0.0377296480644998,-0.9989373487553279,0.0,0.026469735899806317
1752506869.2000728,0.5,0.30000001192092896,5.759606838226318,5.747344493865967,562,678,-0.054091883687763194,-0.035972434964768624,0.002264931090374321,0.138671875,-0.0482177734375,-1.1571044921875,-0.3277701881544642,-0.942650465173345,0.0,0.06306190819871636
1752506869.2500975,0.5,0.30000001192092896,6.114469528198242,6.030671119689941,569,684,-0.12230627888021332,-0.08953139369009079,0.013323124061025418,0.001708984375,0.0115966796875,-1.1885986328125,0.9893029742430806,-0.14579201725687502,0.0,0.004930807029827018
1752506869.3001008,0.5,0.30000001192092896,6.899729251861572,6.640646457672119,577,692,-0.22809188392475513,-0.11977488530861849,0.14682082715250008,0.1292724609375,0.1143798828125,-1.45654296875,0.661498019555002,-0.7476268972345219,0.0,0.058943978965555414
1752506869.3501012,0.5,0.30000001192092896,6.864116668701172,6.605776786804199,584,699,0.033041347671343035,-0.10884992357857766,0.1737335377557714,0.0208740234375,-0.1978759765625,-1.4749755859375,-0.9922476082663847,-0.10467263480169757,0.0,0.06699495065532737
1752506869.4000661,0.5,0.30000001192092896,7.068636417388916,6.704488754272461,592,706,-0.07833996947882944,0.06181929564315793,0.02464777951289702,0.080078125,-0.1470947265625,-1.3865966796875,-0.8766994793193548,-0.4772737414385865,0.0,0.06006495396140363
1752506869.450088,0.5,0.30000001192092896,6.892024517059326,6.590775966644287,599,713,0.04849617158213252,0.0401026034236865,-0.03903675349880447,0.0814208984375,0.0277099609375,-1.307373046875,0.32200883466239755,-0.9461669282811418,0.0,0.03283982683257175
1752506869.5000765,0.5,0.30000001192092896,6.87175178527832,6.715048789978027,606,720,-0.0941944871114497,0.07634150086967564,-0.03264165394951227,0.0614013671875,-0.014892578125,-1.393310546875,-0.23565011786507453,-0.9715738466076435,0.0,0.02265573963046769
1752506869.5501037,0.5,0.30000001192092896,6.877737522125244,6.830109119415283,614,727,0.07514241970418334,-0.1793292498614021,-0.04716385917602997,0.07568359375,-0.0828857421875,-1.0736083984375,-0.737460561048994,-0.6733807773937796,0.0,0.05206005699048146
1752506869.6000798,0.5,0.30000001192092896,6.724399089813232,6.904204368591309,621,735,-0.07407656977930133,-0.07807350699760894,-0.1023215927886752,0.0517578125,-0.043212890625,-1.334716796875,-0.640692345250655,-0.7673829219951349,0.0,0.025234297442652667
1752506869.6501007,0.5,0.30000001192092896,7.033958911895752,7.142177104949951,629,742,0.06301837680865022,0.018918836166656093,-0.15934456376986397,0.085693359375,0.048583984375,-1.4541015625,0.4929181161541038,-0.869418385779349,0.0,0.03381421647651469
1752506869.70008,0.5,0.30000001192092896,6.9705071449279785,7.123394966125488,636,750,-0.11271362955627502,0.0305099540997482,-0.18132771847055593,0.1390380859375,-0.06982421875,-1.2999267578125,-0.44798628541663454,-0.8920566067999068,0.0,0.0595256108178825
1752506869.750097,0.5,0.30000001192092896,6.793262958526611,7.007885932922363,643,758,0.05062787143189658,0.07074578876404496,-0.0127901990985844,0.0057373046875,0.070068359375,-1.21337890625,0.9962472061616929,-0.08157424858815256,0.0,0.028933478572395987
1752506869.8000736,0.5,0.30000001192092896,6.909234523773193,7.009178638458252,651,765,-0.2727243495291903,0.04743032165725048,-0.026113323159609816,0.0692138671875,0.0557861328125,-1.1944580078125,0.627104863766048,-0.7780491416966067,0.0,0.03713519821059259
1752506869.8500943,0.5,0.30000001192092896,6.724415302276611,7.026272773742676,658,773,-0.11404594196237756,-0.05728943346240929,-0.13003369083560806,-0.0352783203125,-0.1505126953125,-1.267333984375,-0.9718210096421173,0.22778286438489206,0.0,0.06065386970993656
1752506869.9000237,0.5,0.30000001192092896,6.8790459632873535,6.751981258392334,665,780,-0.005196018383799912,-0.044232771882604376,-0.16107656989779728,0.0401611328125,-0.2218017578125,-1.353759765625,-0.9806531799696845,-0.1775646099119572,0.0,0.08240236599855706
1752506869.9500797,0.5,0.30000001192092896,6.516777038574219,6.833956718444824,672,787,0.036105666205378875,-0.003464012255866608,-0.06967993883916293,0.102783203125,-0.030517578125,-1.2152099609375,-0.284355493397815,-0.9577093017638411,0.0,0.04398689224645615
1752506870.0000753,0.5,0.30000001192092896,6.717229843139648,6.875804901123047,679,795,-0.05688973974057853,0.08953139369009079,-0.0866003063966652,0.09130859375,0.0701904296875,-1.3397216796875,0.6088944751013045,-0.7920922910883056,0.0,0.04286397776205663
1752506870.0500975,0.5,0.30000001192092896,6.815545558929443,6.96593713760376,687,802,-0.053558958725322174,0.05342572748471192,-0.12523736617363893,0.089599609375,0.3021240234375,-1.278564453125,0.9517378645986101,-0.28225276469308275,0.0,0.12053387039495944
1752506870.1000748,0.5,0.30000001192092896,6.851378917694092,6.852351665496826,694,809,0.03703828488965066,-0.11697702925580315,-0.17133537542478686,0.025146484375,-0.2034912109375,-1.44189453125,-0.9899766916711615,-0.12233665176020353,0.0,0.0705683610687161
1752506870.150096,0.5,0.30000001192092896,6.800291061401367,6.953963279724121,701,817,0.07580857590723461,0.013856049023466432,-0.015987748873230498,0.068359375,-0.0455322265625,-1.212890625,-0.554040403878312,-0.8318032873240072,0.0,0.033801213991989744
1752506870.200081,0.5,0.30000001192092896,6.79468297958374,6.787594318389893,709,824,-0.046764165454199216,0.0846018377875114,0.054491577409593955,0.1640625,0.0052490234375,-1.1695556640625,0.03189999851706875,-0.9970604187660557,0.0,0.06966284106084521
1752506870.2500932,0.5,0.30000001192092896,6.7566399574279785,6.609743118286133,716,831,0.023315467106794475,-0.03583920372415837,-0.027712098046932865,0.013427734375,0.0595703125,-1.18115234375,0.9751987313116517,-0.21981938615631494,0.0,0.025823863343931913
1752506870.3000743,0.5,0.30000001192092896,6.477431774139404,6.45716667175293,723,838,-0.28791271095875925,-0.08366921910323963,-0.057955589665460557,0.0928955078125,0.0384521484375,-1.3768310546875,0.38220504027902313,-0.923358843340751,0.0,0.0364383535541966
1752506870.3500922,0.5,0.30000001192092896,6.465357303619385,6.458280563354492,730,845,0.14895252700226413,-0.05182695259738887,0.12443797872997739,0.0572509765625,-0.0814208984375,-1.404541015625,-0.8175083979392195,-0.5748297430787016,0.0,0.0353664497924873
1752506870.400075,0.5,0.30000001192092896,6.554304122924805,6.318474769592285,737,852,-0.21929862204447836,0.03384073511500456,0.006261868308681946,0.0616455078125,-0.12255859375,-1.4034423828125,-0.8922967954854353,-0.44881462322723586,0.0,0.04870177351819507
1752506870.45008,0.5,0.30000001192092896,6.381328105926514,6.258445739746094,744,858,0.011724349173702367,0.11364624824054681,-0.13829402775344382,0.1182861328125,-0.0960693359375,-1.41455078125,-0.6295345253071484,-0.7751193837644559,0.0,0.05363042381814008
1752506870.500069,0.5,0.30000001192092896,6.4471354484558105,6.143868446350098,750,865,0.04356661567955311,0.13469678425696696,-0.02078407353519965,0.078125,-0.1663818359375,-1.2376708984375,-0.9027211812850313,-0.42387494939282466,0.0,0.07365117878613962
1752506870.5500917,0.5,0.30000001192092896,6.184234619140625,6.150048732757568,757,872,-0.023049004625573973,-0.010258805526989571,0.06355130177109124,0.1390380859375,0.187744140625,-1.2257080078125,0.8000612472976028,-0.5925030953653899,0.0,0.09403234845007233
1752506870.6000922,0.5,0.30000001192092896,6.50075626373291,6.493172645568848,764,879,-0.09392802463022919,0.07061255752343472,-0.13629555914429,0.0614013671875,-0.0250244140625,-1.1832275390625,-0.37726601993107806,-0.9256819903674743,0.0,0.027985762713829323
1752506870.6500976,0.5,0.30000001192092896,6.604166030883789,6.676403522491455,771,886,-0.11084839218773146,-0.06674885154573734,-0.04396630940138387,0.100830078125,0.1417236328125,-1.2073974609375,0.8127387510703867,-0.5782275696676481,0.0,0.07147447225963259
1752506870.7000608,0.5,0.30000001192092896,6.6674981117248535,6.673830032348633,778,893,0.004663093421358896,-0.0961929557206035,0.03424042883683532,0.072509765625,-0.020263671875,-1.2890625,-0.26903427510969663,-0.9626889121395168,0.0,0.02916534347189482
1752506870.7500765,0.5,0.30000001192092896,6.7927565574646,6.896927833557129,786,901,-0.048895865303963275,-0.09219601850229589,-0.054225114928373445,0.03271484375,-0.0076904296875,-1.332275390625,-0.22881867783820972,-0.9733873914387334,0.0,0.012609475027597369
1752506870.8000755,0.5,0.30000001192092896,6.819692134857178,6.9614739418029785,793,908,0.0863338439154447,0.07634150086967564,-0.21703369095410402,0.1368408203125,-0.028564453125,-1.427001953125,-0.20409431751925958,-0.9777338886285897,0.0,0.04880525159820456
1752506870.850094,0.5,0.30000001192092896,7.027700424194336,7.197558403015137,801,916,-0.07061255752343472,0.11697702925580315,-0.03956967846124549,0.168212890625,-0.063232421875,-1.220703125,-0.3509285007040401,-0.9335511080505158,0.0,0.0730172311942098
1752506870.9000738,0.5,0.30000001192092896,6.755359172821045,6.8543267250061035,808,923,0.014921898948348467,0.0063950995492922,0.07407656977930133,0.04345703125,0.1259765625,-1.0888671875,0.9435821279243494,-0.3254992611832058,0.0,0.060852270548795204
1752506870.950093,0.5,0.30000001192092896,6.894913673400879,6.97077751159668,815,931,-0.13443032177574646,-0.012523736617363892,-0.04316692195772235,0.02197265625,0.0494384765625,-1.2669677734375,0.9136035270362759,-0.40604601201612256,0.0,0.021336155058485348
1752506871.0000732,0.5,0.30000001192092896,6.741520404815674,6.726535320281982,823,938,-0.10711791745064435,-0.18292649335787897,-0.1883889742228994,0.0316162109375,-0.1142578125,-1.4117431640625,-0.9629375113692374,-0.26645386265452187,0.0,0.041877061435887826
1752506871.0500953,0.5,0.30000001192092896,6.772057056427002,6.667521953582764,830,945,0.00013323124061025415,0.008260336917835759,-0.13243185316659264,0.108154296875,-0.0418701171875,-1.2642822265625,-0.3606460661027393,-0.9315813835773382,0.0,0.04572243187704382
1752506871.100073,0.5,0.30000001192092896,6.785521984100342,6.819938659667969,837,952,0.04916232778518379,0.06395099549292199,0.006928024511733216,0.099609375,-0.0269775390625,-1.2044677734375,-0.261176800018076,-0.96434510775905,0.0,0.0427222690584636
1752506871.1500938,0.5,0.30000001192092896,6.664770603179932,6.632349491119385,844,959,-0.13562940294123874,-0.12270597260204408,0.025180704475338038,-0.008056640625,0.140625,-1.1217041015625,0.9964160931661391,0.05708633867097671,-0.0,0.0624189011171345
1752506871.2000751,0.5,0.30000001192092896,6.893812656402588,6.761679172515869,852,967,-0.0720781011701475,0.04036906590490701,0.05808882090607082,0.0601806640625,0.008056640625,-1.5196533203125,0.13266401067995925,-0.9909599585639383,0.0,0.019965490058230655
1752506871.2500923,0.5,0.30000001192092896,6.979464530944824,6.596139430999756,859,974,0.026113323159609816,-0.10538591132271104,0.061686064402547675,-0.0352783203125,-0.2066650390625,-1.3475341796875,-0.9828072050771278,0.1677680344165918,0.0,0.07709659056325358
1752506871.3000755,0.5,0.30000001192092896,7.019534587860107,6.526525497436523,867,981,0.0009326186842717792,0.16720520696586896,0.15361562042362306,0.1312255859375,-0.03564453125,-1.2366943359375,-0.26173690906798114,-0.9635862234523279,0.0,0.05473006855851568
1752506871.3500762,0.5,0.30000001192092896,6.807879447937012,6.305901527404785,874,987,-0.07940581940371148,-0.03130934154340973,0.21956508452569887,0.0765380859375,0.0728759765625,-1.25048828125,0.6889559861058242,-0.7235768899302375,0.0,0.042144199693864
1752506871.4000754,0.5,0.30000001192092896,6.863565444946289,6.159154891967773,881,994,-0.1633415009881716,0.041834609551619814,0.14975191444592567,0.1722412109375,0.064697265625,-1.371826171875,0.3508513163404637,-0.9340588818045173,0.0,0.0666135057196231
1752506871.4500933,0.5,0.30000001192092896,6.872611999511719,6.263548851013184,889,1001,0.008127105677225504,0.002398162330984575,0.0764747321102859,0.02978515625,-0.217529296875,-1.2171630859375,-0.9868137146700005,-0.135119274062559,0.0,0.08911495001402436
1752506871.5000722,0.5,0.30000001192092896,6.884598731994629,6.3278350830078125,896,1007,0.05102756515372735,-0.0610199081994964,0.1028545177511162,0.0128173828125,0.0316162109375,-1.0338134765625,0.9266132124559993,-0.3756540050497294,0.0,0.016493119537285487
1752506871.5500922,0.5,0.30000001192092896,6.722001075744629,6.346540451049805,903,1014,-0.04583154676992743,-0.026779479362661087,0.08033843808798326,0.0721435546875,0.1075439453125,-1.089599609375,0.8289993916096421,-0.5561165044736646,0.0,0.059113806871458646
1752506871.6000736,0.5,0.30000001192092896,6.713624477386475,6.553669452667236,910,1021,-0.12004134778983899,-0.10991577350345969,-0.04876263406335302,0.114501953125,0.1317138671875,-1.4149169921875,0.7532754104665345,-0.6548399768467186,0.0,0.061325041458307014
1752506871.6500921,0.5,0.30000001192092896,6.623802661895752,6.5708160400390625,917,1028,-0.06981317007977318,-0.0528928025222709,0.057156202221799034,0.060546875,0.048828125,-1.710693359375,0.6275904565508122,-0.7782121661230071,0.0,0.02271658743033681
1752506871.7000744,0.5,0.30000001192092896,6.863536357879639,6.823060512542725,925,1036,0.05382542120654268,0.09579326199877274,0.11044869846590069,0.155517578125,-0.0604248046875,-1.370361328125,-0.3614994810628205,-0.930404724998047,0.0,0.060540671392213544
1752506871.7500997,0.5,0.30000001192092896,6.759887218475342,6.590429782867432,932,1043,-0.11417917320298782,0.056090352296917,-0.055690658575086247,0.0552978515625,-0.19921875,-1.1416015625,-0.9597049383592329,-0.26638868693427237,0.0,0.08946227563803338
1752506871.8000805,0.5,0.30000001192092896,6.73998498916626,6.579588890075684,939,1050,0.13229862192598238,-0.018252679963604822,-0.10445329263843926,0.023193359375,-0.069091796875,-1.194091796875,-0.9475708811552881,-0.3180891650521285,0.0,0.030474715142730036
1752506871.850092,0.5,0.30000001192092896,6.8106560707092285,6.687012195587158,947,1057,0.031575804024630234,-0.1461546709494488,-0.04689739669480947,0.0565185546875,-0.0289306640625,-1.24169921875,-0.4555043180392821,-0.8898670854522684,0.0,0.025541857337588295
1752506871.9000595,0.5,0.30000001192092896,6.878168106079102,6.770115852355957,954,1064,-0.11671056677458265,0.08286983165957809,0.14162480876870018,0.083984375,0.2081298828125,-1.5924072265625,0.9250754344802082,-0.37328557121547407,0.0,0.06995228976660736
1752506871.9500976,0.5,0.30000001192092896,7.026833534240723,6.687555313110352,962,1071,-0.11857580414312621,0.016653905076281773,0.15121745809263848,0.0782470703125,0.0618896484375,-1.392333984375,0.6199614157869077,-0.7838170956990291,0.0,0.03575756459033781
1752506872.000082,0.5,0.30000001192092896,6.993902683258057,6.379926681518555,969,1078,-0.09459418083328046,-0.00479632466196915,0.09113016857741385,0.057373046875,-0.176025390625,-1.290771484375,-0.9483610749015591,-0.3091052047182613,0.0,0.07117052780218423
1752506872.050095,0.5,0.30000001192092896,6.998089790344238,6.300800800323486,977,1085,0.071811638688927,-0.10565237380393155,0.06115313944010666,0.15283203125,-0.0216064453125,-1.173583984375,-0.13968272176279414,-0.9880382352938885,0.0,0.06533898406217067
1752506872.1000762,0.5,0.30000001192092896,6.709531307220459,6.3121113777160645,984,1092,-0.0026646248122050836,0.06781470147061937,0.11151454839078273,0.0751953125,0.012451171875,-1.1866455078125,0.1632760340133204,-0.9860591858059348,0.0,0.03206585106648181
1752506872.1500757,0.5,0.30000001192092896,6.958840847015381,6.538553714752197,991,1099,-0.0912633998180241,0.13935987767832586,0.20277794820880685,0.1055908203125,0.166015625,-1.2928466796875,0.8413846466109741,-0.5351453818518328,0.0,0.0754406835201146
1752506872.2000732,0.5,0.30000001192092896,7.298073768615723,6.6318769454956055,999,1106,0.04596477801053769,-0.11577794809031088,0.13909341519710536,-0.0037841796875,-0.180419921875,-1.1495361328125,-0.9967514578988265,0.020906153717769705,0.0,0.07777829975830608
1752506872.2500956,0.5,0.30000001192092896,7.330244064331055,6.259259223937988,1007,1112,0.023581929588014985,-0.17999540606445338,0.25527105700924696,0.1112060546875,0.02587890625,-1.2308349609375,0.22641264954710164,-0.9729336025349509,0.0,0.04623329085652016
1752506872.300073,0.5,0.30000001192092896,7.258998394012451,6.471989154815674,1015,1120,-0.09819142432975732,-0.03450689131805583,0.23768453324869343,0.0281982421875,0.0186767578125,-1.4490966796875,0.5521614678933474,-0.8336555495644657,0.0,0.011667821314732004
1752506872.3500934,0.5,0.30000001192092896,6.959866046905518,6.308807849884033,1022,1126,-0.1316324657229311,-0.2339540585116063,0.28831240468059,0.0989990234375,-0.082763671875,-1.4627685546875,-0.640772674462149,-0.7664699690100337,0.0,0.04397915720409815
1752506872.400074,0.5,0.30000001192092896,6.82215690612793,6.05908203125,1030,1133,-0.049961715228845315,0.2580689130620623,0.1662725882815972,0.0877685546875,-0.09423828125,-1.3360595703125,-0.730935411483601,-0.6807546125086905,0.0,0.048026886089372084
1752506872.4500852,0.5,0.30000001192092896,6.9549078941345215,6.258094310760498,1037,1139,0.02997702913730719,0.03983614094246599,0.03930321598002497,0.041259765625,-0.1055908203125,-1.11962890625,-0.930232145169284,-0.3634895549910035,0.0,0.05043311914004994
1752506872.5000877,0.5,0.30000001192092896,7.017520427703857,6.731557369232178,1045,1147,-0.026379785640830326,0.0912633998180241,-0.008260336917835759,0.182861328125,-0.0235595703125,-1.181640625,-0.1273997831624662,-0.9888335501418359,0.0,0.07731432832308426
1752506872.5500212,0.5,0.30000001192092896,6.599149703979492,6.530276298522949,1051,1154,-0.1247044412111979,-0.06648238906451683,0.01851914244482533,0.0697021484375,0.0592041015625,-1.2305908203125,0.6469319278950497,-0.7616456305733473,0.0,0.03708118253942709
1752506872.600069,0.5,0.30000001192092896,6.6651177406311035,6.73486852645874,1059,1161,-0.08793261880276775,-0.054091883687763194,-0.020917304775809907,0.0528564453125,0.052978515625,-1.368408203125,0.7076577691857983,-0.7060272213305314,0.0,0.027313814293654533
1752506872.650098,0.5,0.30000001192092896,6.57217264175415,6.52431058883667,1066,1168,0.045298621807486415,-0.2673950999047801,-0.04862940282274277,0.10546875,-0.0777587890625,-1.2255859375,-0.5925801372333709,-0.8037507669852942,0.0,0.053230494333893555
1752506872.700092,0.5,0.30000001192092896,6.723350524902344,6.592456817626953,1073,1175,-0.041301684589178794,-0.004263399699528133,-0.09605972447999325,-0.00048828125,-0.197021484375,-1.3367919921875,-0.9973215437374245,0.002471676688320755,0.0,0.07310013140582375
1752506872.7500963,0.5,0.30000001192092896,6.850011348724365,7.016651153564453,1080,1182,0.20237825448697608,0.12923430339194653,0.07420980101991156,0.1829833984375,0.115478515625,-1.3616943359375,0.5320400156091976,-0.8430528365731365,0.0,0.07871046014700457
1752506872.800093,0.5,0.30000001192092896,7.412484169006348,6.886284351348877,1088,1190,-0.1293675346325568,0.16867075061258177,-0.011191424211261349,0.1483154296875,0.0570068359375,-1.3468017578125,0.35815483808439874,-0.931816120497954,0.0,0.05868415064462184
1752506872.8500767,0.5,0.30000001192092896,7.10282564163208,6.590012073516846,1096,1197,0.032508422708902016,0.05249310880044014,0.19491730501280186,0.0018310546875,0.04296875,-1.06787109375,0.9988909308969383,-0.04256637489617635,0.0,0.020124907454347366
1752506872.900093,0.5,0.30000001192092896,7.485128879547119,6.604259967803955,1104,1204,0.07061255752343472,-0.14975191444592567,0.19345176136608905,-0.07275390625,-0.18994140625,-1.2210693359375,-0.9306612715863956,0.35647436880815664,0.0,0.08243556242314257
1752506872.950097,0.5,0.30000001192092896,6.954171657562256,6.3050055503845215,1111,1211,0.012523736617363892,-0.2586018380245033,0.10964931102223918,0.0887451171875,-0.052490234375,-1.46728515625,-0.5087750877773249,-0.8601848577072447,0.0,0.03507022424140177
1752506873.000079,0.5,0.30000001192092896,7.015697479248047,6.481700420379639,1119,1218,-0.02424808579106626,0.23675191456442166,0.11258039831566477,0.1204833984375,0.044189453125,-1.621826171875,0.3440701539243602,-0.9381139279650373,0.0,0.03947134829817478
1752506873.0501072,0.5,0.30000001192092896,7.047917366027832,6.721032619476318,1126,1225,-0.01212404289553313,0.2346202147146576,0.09712557440487528,0.084228515625,-0.14404296875,-1.1016845703125,-0.8608107108022215,-0.5033554156385871,0.0,0.07508825284609551
1752506873.1000786,0.5,0.30000001192092896,7.352255821228027,6.511281967163086,1134,1232,-0.0063950995492922,-0.11617764181214164,0.22276263430034499,-0.0064697265625,-0.0390625,-0.9229736328125,-0.9863334035946146,0.16336146997035805,0.0,0.021434716760118256
1752506873.1501014,0.5,0.30000001192092896,7.2635345458984375,6.166831970214844,1142,1239,-0.007727411955394742,-0.12577029113607993,0.28618070483082597,-0.003662109375,-0.0386962890625,-1.191650390625,-0.9954194522956465,0.09420373365573942,0.0,0.016302470878780076
1752506873.2000732,0.5,0.30000001192092896,7.2879767417907715,6.461395263671875,1150,1246,-0.002264931090374321,0.0026646248122050836,0.3229525272392561,0.1094970703125,0.1502685546875,-1.3480224609375,0.8062991686038004,-0.5875307508022818,0.0,0.06847822698148057
1752506873.250097,0.5,0.30000001192092896,7.558236598968506,6.714147090911865,1158,1253,-0.00866003063966652,0.24781010753507274,0.09219601850229589,-0.0860595703125,-0.08203125,-1.263427734375,-0.6892036464804555,0.7230484684058348,0.0,0.04689611939190519
1752506873.300077,0.5,0.30000001192092896,7.402545928955078,6.805665493011475,1166,1260,0.0575558959436298,-0.31762327761484593,0.1247044412111979,0.03369140625,-0.0655517578125,-1.24560546875,-0.8890149443117228,-0.45692388199261724,0.0,0.029546486343071224
1752506873.3501258,0.5,0.30000001192092896,7.136849403381348,6.347477436065674,1174,1267,-0.13296477812903365,0.08726646259971647,0.23555283339892938,0.09130859375,0.00390625,-1.6099853515625,0.0427244757551298,-0.998684620776159,0.0,0.028348675394608107
1752506873.400085,0.5,0.30000001192092896,7.148050785064697,6.466777324676514,1181,1273,-0.06821439519245012,0.03477335379927634,0.18372588080154048,0.0985107421875,-0.1842041015625,-1.371826171875,-0.8793027420783108,-0.47024341474963344,0.0,0.07548389668113095
1752506873.4500983,0.5,0.30000001192092896,6.861217498779297,6.19364070892334,1188,1280,-0.06435068921475276,0.07194486992953725,0.23501990843648835,0.073974609375,-0.01025390625,-1.0977783203125,-0.13722192073577016,-0.9899581424509132,0.0,0.033956157979424265
1752506873.5000725,0.5,0.30000001192092896,6.963660717010498,6.280170917510986,1196,1287,-0.017453292519943295,0.09192955602107537,0.1264364473391312,0.0360107421875,0.0504150390625,-0.97509765625,0.813323976208444,-0.5809456972917457,0.0,0.03172075854537024
1752506873.5500975,0.5,0.30000001192092896,6.898046016693115,6.5467610359191895,1203,1294,-0.2564701381747393,-0.14029249636259766,0.0816707504940858,-0.0089111328125,0.11083984375,-1.0238037109375,0.9953257663782997,0.08002068386081045,-0.0,0.05406763299700354
1752506873.6000712,0.5,0.30000001192092896,7.025960445404053,6.577817916870117,1211,1301,-0.040901990867348026,-0.2637978564083033,0.11018223598468019,-0.0106201171875,-0.013671875,-1.3505859375,-0.7897155273119543,0.6134397399655359,0.0,0.006408693581180583
1752506873.6500936,0.5,0.30000001192092896,7.083583831787109,6.95026969909668,1218,1309,-0.03970290970185574,-0.10418683015721876,0.06408422673353224,0.0482177734375,-0.33349609375,-1.355712890625,-0.9823759020653888,-0.14203458320491527,0.0,0.12150623117774455
1752506873.7000768,0.5,0.30000001192092896,6.971538066864014,6.964865207672119,1226,1316,0.03823736605514295,-0.02624655440022007,-0.05235987755982989,0.087646484375,-0.061279296875,-1.33349609375,-0.5725439628887852,-0.8188975405461112,0.0,0.040002857987093965
1752506873.7500806,0.5,0.30000001192092896,6.952338218688965,7.0865960121154785,1233,1324,0.04210107203284032,0.1133797857593263,-0.2617993877991494,0.0570068359375,-0.0615234375,-1.3134765625,-0.7331459405469185,-0.6793237187210536,0.0,0.03187969640026543
1752506873.8000686,0.5,0.30000001192092896,6.994810581207275,7.192888259887695,1241,1331,-0.11697702925580315,0.04756355289786074,-0.1633415009881716,0.082763671875,0.126953125,-1.2066650390625,0.8360727218127012,-0.5450551013355879,0.0,0.06242868210008658
1752506873.8500786,0.5,0.30000001192092896,6.936720371246338,7.156261444091797,1248,1339,-0.1482863707992129,-0.09979019921708036,-0.048229709100912004,-0.0064697265625,-0.0323486328125,-1.3043212890625,-0.9805023005325413,0.19610046010650828,0.0,0.012643108652918992
1752506873.9000435,0.0,0.0,7.003587245941162,7.294859886169434,1256,1347,-0.07021286380160395,0.03437366007744557,-0.10831699861613663,0.0732421875,-0.056884765625,-1.25439453125,-0.612976187865795,-0.7892397268658305,0.0,0.036889655003360444
1752506873.9499876,0.0,0.0,6.228734493255615,6.84023380279541,1261,1353,-0.023315467106794475,-0.2267595715186526,-0.37571209852091675,-0.0985107421875,-0.0484619140625,-1.078857421875,-0.4408550467400971,0.8961461529452354,0.0,0.05068432030955473
1752506874.0000446,0.0,0.0,4.991254806518555,5.265692234039307,1264,1357,0.0575558959436298,-0.20610872922406318,-0.44792343093167447,-0.22705078125,0.02294921875,-1.3800048828125,0.10022546236033068,0.9915923403734844,-0.0,0.08185039527878701
1752506874.050102,0.0,0.0,4.004724979400635,4.364816665649414,1266,1359,-0.09059724361497283,-0.05275957128166065,-0.23675191456442166,-0.0191650390625,0.037109375,-1.3101806640625,0.8883925683938225,0.45880800407180966,-0.0,0.015932979077041522
1752506874.1000738,0.0,0.0,4.004724979400635,3.7850217819213867,1266,1360,-0.03357427263378405,0.006528330789902454,0.08220367545652682,0.058837890625,-0.04150390625,-1.2586669921875,-0.5761816604717208,-0.8168222363157924,0.0,0.028567961007367065
1752506874.1500936,0.0,0.0,0.0,3.7850217819213867,1266,1360,-0.03743797861148142,-0.030909647821578966,-0.07341041357625004,0.0823974609375,-0.027099609375,-1.293701171875,-0.3122504425826871,-0.9494101294743863,0.0,0.03346740441601189
1752506874.200073,0.0,0.0,0.0,0.0,1266,1360,-0.03770444109270193,0.0029310872934255917,-0.04210107203284032,0.0506591796875,-0.0438232421875,-1.3114013671875,-0.6540234826443573,-0.756043858767154,0.0,0.025514070044152952
1752506874.250099,0.0,0.0,0.0,0.0,1266,1360,-0.029577335415476424,-0.012923430339194655,-0.03464012255866608,0.077880859375,-0.024658203125,-1.2806396484375,-0.30169333254004355,-0.9528730007947909,0.0,0.031846152942121626
1752506874.300073,0.0,0.0,0.0,0.0,1266,1360,-0.037837672333312186,-0.017986217482384312,-0.0369050536490404,0.0545654296875,-0.0291748046875,-1.2913818359375,-0.4713744533836817,-0.881608287290819,0.0,0.023936425743705372
1752506874.3499827,0.0,0.0,0.0,0.0,1266,1360,-0.032108728987071254,-0.011724349173702367,-0.045032159326265905,0.0711669921875,-0.0281982421875,-1.29541015625,-0.3682039620224853,-0.9292766660567485,0.0,0.029507969659031998
1752506874.4000401,0.0,0.0,0.0,0.0,1266,1360,-0.03970290970185574,-0.011591117933092112,-0.03877029101758396,0.060302734375,-0.0330810546875,-1.297119140625,-0.4807959327723067,-0.8764324383377103,0.0,0.02648494023068685
1752506874.4500954,0.0,0.0,0.0,0.0,1266,1360,-0.029444104174866172,-0.01345635530163567,-0.041301684589178794,0.067626953125,-0.0291748046875,-1.2930908203125,-0.39595823215986714,-0.9178278686885624,0.0,0.028444364001400817
1752506874.500081,0.0,0.0,0.0,0.0,1266,1360,-0.037837672333312186,-0.013056661579804908,-0.03757120985209167,0.06103515625,-0.0302734375,-1.2977294921875,-0.4441917593585907,-0.8955479019326424,0.0,0.026222819489184153
1752506874.550129,0.0,0.0,0.0,0.0,1266,1360,-0.029577335415476424,-0.011724349173702367,-0.04356661567955311,0.0654296875,-0.02734375,-1.2939453125,-0.38544853668090145,-0.9223232842007284,0.0,0.027371243883578155
1752506874.600081,0.0,0.0,0.0,0.0,1266,1360,-0.03877029101758396,-0.014122511504686942,-0.03890352225819422,0.059814453125,-0.03076171875,-1.29345703125,-0.4571937097613923,-0.888987768980485,0.0,0.02597418637253728
1752506874.650097,0.0,0.0,0.0,0.0,1266,1360,-0.03077641658096871,-0.011990811654922875,-0.04223430327345057,0.063232421875,-0.029541015625,-1.293212890625,-0.4231146367537746,-0.9056751315638646,0.0,0.026954781236325047
1752506874.7000725,0.0,0.0,0.0,0.0,1266,1360,-0.03797090357392244,-0.013856049023466432,-0.03903675349880447,0.0643310546875,-0.030029296875,-1.29248046875,-0.4228203959753919,-0.9057981653619167,0.0,0.027433490011271953
1752506874.7500806,0.0,0.0,0.0,0.0,1266,1360,-0.0334410413931738,-0.01372281778285618,-0.04276722823589159,0.05712890625,-0.027587890625,-1.300537109375,-0.4347275457392466,-0.9002322628582629,0.0,0.024368707077365003
1752506874.8000698,0.0,0.0,0.0,0.0,1266,1360,-0.03583920372415837,-0.012923430339194655,-0.03983614094246599,0.0638427734375,-0.0260009765625,-1.295654296875,-0.37705118270082527,-0.9258111199649371,0.0,0.026573967960723456
1752506874.850095,0.0,0.0,0.0,0.0,1266,1360,-0.0003996937218307625,-0.014788667707738212,-0.04210107203284032,0.0601806640625,-0.0291748046875,-1.2896728515625,-0.43608235402244694,-0.8995338934437922,0.0,0.025902800159315592
1752506874.9000733,0.0,0.0,0.0,0.0,1266,1360,-0.03743797861148142,-0.01438897398590745,-0.03930321598002497,0.076416015625,-0.0467529296875,-1.294921875,-0.5215796872087812,-0.8525036140801489,0.0,0.03452850809801158
1752506874.9499898,0.0,0.0,0.0,0.0,1266,1360,-0.032241960227681506,-0.013189892820415163,-0.041301684589178794,0.0643310546875,-0.029052734375,-1.281494140625,-0.4114309520918708,-0.9110256796319995,0.0,0.027509683964563453
1752506875.0000174,0.0,0.0,0.0,0.0,1266,1360,-0.03543951000232761,-0.012257274136143382,-0.04023583466429676,0.0645751953125,-0.026611328125,-1.29345703125,-0.3808749171367517,-0.9242331704832185,0.0,0.026969317281132433
1752506875.0500882,0.0,0.0,0.0,0.0,1266,1360,-0.03464012255866608,-0.01345635530163567,-0.040768759626737774,0.065673828125,-0.03125,-1.2950439453125,-0.42950392953462496,-0.9026293519126103,0.0,0.028046881825562843
1752506875.100059,0.0,0.0,0.0,0.0,1266,1360,-0.06794793271122962,-0.012656967857974145,-0.04063552838612752,0.0614013671875,-0.0262451171875,-1.29443359375,-0.3929060938652922,-0.9192175126243813,0.0,0.025767535546959326
1752506875.1500947,0.0,0.0,0.0,0.0,1266,1360,-0.036238897445989134,-0.011724349173702367,-0.0415681470703993,0.062255859375,-0.0294189453125,-1.295654296875,-0.4270973407331967,-0.9038159492694204,0.0,0.026544140310957483
1752506875.2000716,0.0,0.0,0.0,0.0,1266,1360,-0.03464012255866608,-0.013189892820415163,-0.039969372183076245,0.0611572265625,-0.029052734375,-1.2962646484375,-0.4289475297024763,-0.9029525730291623,0.0,0.02608960755087081
1752506875.2500978,0.0,0.0,0.0,0.0,1266,1360,-0.037304747370871166,-0.012257274136143382,-0.03983614094246599,0.060546875,-0.0301513671875,-1.3004150390625,-0.4456187582292994,-0.8948457655130871,0.0,0.025980343675056167
1752506875.3000712,0.0,0.0,0.0,0.0,1266,1360,-0.03543951000232761,-0.015987748873230498,-0.039969372183076245,0.062744140625,-0.026611328125,-1.293212890625,-0.39032255023990897,-0.9203017927674918,0.0,0.026323316720242896
1752506875.3500938,0.0,0.0,0.0,0.0,1266,1360,-0.03543951000232761,-0.01345635530163567,-0.04063552838612752,0.0628662109375,-0.0281982421875,-1.2957763671875,-0.4091150128778364,-0.9120962408315402,0.0,0.026558495795902776
1752506875.4000955,0.0,0.0,0.0,0.0,1266,1360,-0.03450689131805583,-0.01372281778285618,-0.04063552838612752,0.0767822265625,-0.02783203125,-1.2978515625,-0.34061458476029377,-0.9396779553255473,0.0,0.031417271106373754
1752506875.450079,0.0,0.0,0.0,0.0,1266,1360,-0.03557274124293786,-0.0127901990985844,-0.041967840792230066,0.06591796875,-0.0172119140625,-1.2930908203125,-0.2525532154276687,-0.9672250803612845,0.0,0.026315723384554523
1752506875.5000496,0.0,0.0,0.0,0.0,1266,1360,-0.03530627876171736,-0.01345635530163567,-0.03916998473941472,0.0653076171875,-0.0264892578125,-1.2916259765625,-0.3757263351770792,-0.9263299046992506,0.0,0.027251214913800784
1752506875.550075,0.0,0.0,0.0,0.0,1266,1360,-0.035705972483548114,-0.01372281778285618,-0.041035222107958284,0.0469970703125,-0.0328369140625,-1.29248046875,-0.5726069572431846,-0.8195304034893163,0.0,0.02216281284811205
1752506875.600037,0.0,0.0,0.0,0.0,1266,1360,-0.03397396635561481,-0.013323124061025418,-0.041168453348568536,0.06689453125,-0.0279541015625,-1.2955322265625,-0.3854209959854649,-0.9223174925765711,0.0,0.027948143781635747
1752506875.6500993,0.0,0.0,0.0,0.0,1266,1360,-0.035173047521107094,-0.014788667707738212,-0.04236753451406082,0.06494140625,-0.02783203125,-1.2818603515625,-0.39377001733284034,-0.9187967071099609,0.0,0.02752788501842136
1752506875.7000542,0.0,0.0,0.0,0.0,1266,1360,-0.03490658503988659,-0.013989280264076687,-0.04223430327345057,0.0657958984375,-0.0289306640625,-1.2947998046875,-0.40235622744366606,-0.9150633189541603,0.0,0.027723429475765875
1752506875.7500758,0.0,0.0,0.0,0.0,1266,1360,-0.03477335379927634,-0.012257274136143382,-0.040768759626737774,0.064697265625,-0.0262451171875,-1.2982177734375,-0.3757723867365927,-0.926322627769275,0.0,0.02686080134526819
1752506875.8000438,0.0,0.0,0.0,0.0,1266,1360,-0.03503981628049684,-0.013056661579804908,-0.03983614094246599,0.0631103515625,-0.0277099609375,-1.2957763671875,-0.40188436407866385,-0.9153049173069128,0.0,0.026568143760401057
1752506875.8500671,0.0,0.0,0.0,0.0,1266,1360,-0.035173047521107094,-0.013189892820415163,-0.04023583466429676,0.0662841796875,-0.0301513671875,-1.2962646484375,-0.41389254621032756,-0.9098933303328253,0.0,0.028055081667534943
1752506875.9000142,0.0,0.0,0.0,0.0,1266,1360,-0.03583920372415837,-0.015987748873230498,-0.041035222107958284,0.0615234375,-0.0291748046875,-1.2943115234375,-0.4283236841295871,-0.9032432502146943,0.0,0.026276463903133585
1752506875.9499965,0.5,0.5,0.0,0.0,1266,1360,-0.03450689131805583,-0.012923430339194655,-0.040502297145517265,0.059326171875,-0.0274658203125,-1.2911376953125,-0.4199891652969262,-0.9071765970413604,0.0,0.02529274231174708
1752506875.9999597,0.5,0.5,0.02403252199292183,0.02407633326947689,1267,1361,-0.021849923460081685,0.22689280275926285,0.0057289433462409285,0.2327880859375,-0.0716552734375,-1.3092041015625,-0.29294818496248437,-0.9517073061728412,0.0,0.09183988406144575
1752506876.0500486,0.5,0.5,1.8122661113739014,2.233461380004883,1270,1364,-0.06661562030512709,0.011191424211261349,-0.19691577362195564,0.1846923828125,-0.0008544921875,-1.206298828125,-0.004613177816875306,-0.9971054338474767,0.0,0.07589118777740339
1752506876.1000793,0.5,0.5,2.6707334518432617,3.345860481262207,1274,1369,-0.06781470147061937,0.10165543658562393,-0.42793874484013633,0.128662109375,-0.050537109375,-1.2496337890625,-0.36504319417335895,-0.9293611755041555,0.0,0.055056987324458434
1752506876.1500518,0.5,0.5,3.9520037174224854,5.5749030113220215,1279,1376,-0.009459418083328047,0.002398162330984575,-0.5086768766499504,0.19970703125,0.0084228515625,-1.381103515625,0.042029809910919376,-0.9965328842646972,0.0,0.07180324267006201
1752506876.2000942,0.5,0.5,5.13125467300415,6.5804972648620605,1285,1383,-0.05249310880044014,0.09486064331450096,-0.42074425784718267,0.1427001953125,-0.1171875,-1.3587646484375,-0.6331940075155864,-0.7710456195684589,0.0,0.06748334157881446
1752506876.2500718,0.5,0.5,5.990062236785889,7.279061794281006,1291,1391,0.0010658499248820332,0.04023583466429676,-0.46670903585772033,0.077880859375,-0.1004638671875,-1.0906982421875,-0.7890042056324444,-0.6116460306117856,0.0,0.05797841608014185
1752506876.3000934,0.5,0.5,6.449883460998535,7.9134955406188965,1298,1400,0.04396630940138387,-0.19198621771937624,-0.513206738830699,0.0234375,-0.047607421875,-1.057861328125,-0.8968889828531698,-0.4415453454046374,0.0,0.025057142456906344
1752506876.3500614,0.5,0.5,6.855143070220947,8.30431079864502,1306,1409,0.03877029101758396,-0.20291117944941708,-0.41528177698216223,0.0684814453125,-0.029296875,-1.336181640625,-0.3931733816778679,-0.9190427796720162,0.0,0.027839918691040327
1752506876.400089,0.5,0.5,7.079442977905273,8.318231582641602,1313,1417,-0.05968759579339387,0.037304747370871166,-0.327082695698174,0.08154296875,0.0621337890625,-1.423583984375,0.6056875959724083,-0.7948905974647716,0.0,0.0359370859595341
1752506876.450038,0.5,0.5,7.460189342498779,8.653403282165527,1322,1427,-0.11138131715017249,-0.04569831552931718,-0.4275390511183056,0.101806640625,-0.090087890625,-1.482666015625,-0.6619977432997131,-0.7481112708834156,0.0,0.04570026524308189
1752506876.5000854,0.5,0.5,7.42869234085083,8.775793075561523,1330,1436,-0.0479632466196915,0.08473506902812164,-0.5795558966546056,0.0823974609375,-0.1044921875,-1.133056640625,-0.7838936938504663,-0.6181404712021785,0.0,0.058421182831401235
1752506876.5500124,0.5,0.5,7.569069862365723,9.026900291442871,1338,1446,-0.09779173060792655,-0.08073813180981403,-0.46111332375208963,0.120849609375,0.001953125,-1.4019775390625,0.01614456941367665,-0.9989452324712427,0.0,0.04298575812314669
1752506876.6000588,0.5,0.5,7.656875133514404,9.215804100036621,1346,1456,-0.07820673823821919,0.05808882090607082,-0.4925558965361096,0.02685546875,0.0260009765625,-1.31103515625,0.6955139617892118,-0.7183712281390919,0.0,0.014251580200381345
1752506876.650066,0.5,0.5,7.80570650100708,9.512768745422363,1354,1466,0.037837672333312186,-0.08526799399056267,-0.6104655444761846,0.1060791015625,0.0174560546875,-1.0419921875,0.16215871117757008,-0.9854260140790796,0.0,0.051382128852809975
1752506876.700115,0.5,0.5,7.881762504577637,9.697219848632812,1363,1476,-0.050361408950676076,0.13043338455743883,-0.582886677669862,0.1370849609375,0.0228271484375,-1.622314453125,0.16410663396283953,-0.985517379359726,0.0,0.04271425604320683
1752506876.7500794,0.5,0.5,7.7724456787109375,9.836457252502441,1371,1487,-0.061686064402547675,0.014522205226517705,-0.6873399703083013,0.01904296875,-0.1929931640625,-1.1806640625,-0.9918719916561733,-0.09786972213685201,0.0,0.08131094426257575
1752506876.8000958,0.5,0.5,7.896164417266846,9.674768447875977,1380,1497,-0.05622358353752725,-0.04223430327345057,-0.6869402765864705,0.107177734375,0.0804443359375,-1.1712646484375,0.5993179374627431,-0.7984842930080248,0.0,0.05692840815338386
1752506876.8500607,0.5,0.5,7.80330228805542,9.670670509338379,1388,1508,-0.012523736617363892,0.031975497746460996,-0.6047366011299435,0.1207275390625,0.1463623046875,-1.48095703125,0.7698635174799888,-0.6350250365201908,0.0,0.06366606196294403
1752506876.9000907,0.5,0.5,7.721875190734863,9.525419235229492,1396,1518,-0.09459418083328046,-0.06022052075583488,-0.6730842275630041,-0.0010986328125,-0.238037109375,-1.206787109375,-0.9952521680355423,0.004593471544779426,0.0,0.09722151016992185
1752506876.9500775,0.5,0.5,7.692363262176514,9.623085021972656,1404,1528,0.02904441045303541,-0.11138131715017249,-0.6690872903446964,0.078125,-0.0372314453125,-1.1783447265625,-0.42991831883465803,-0.9021236854235447,0.0,0.03664826500972186
1752506877.0000973,0.5,0.5,7.8293962478637695,9.556792259216309,1413,1538,0.11298009203749554,0.10152220534501366,-0.5291944877039295,0.1256103515625,0.060302734375,-1.3677978515625,0.43223061207370633,-0.9003346150280239,0.0,0.05073735279583781
1752506877.0500748,0.5,0.5,7.858224868774414,9.754051208496094,1421,1549,-0.12350536004570561,-0.03530627876171736,-0.5732940283459236,0.0850830078125,-0.019287109375,-1.2808837890625,-0.22094898444412642,-0.9746926718832666,0.0,0.03399620052546759
1752506877.1000657,0.5,0.5,7.9904913902282715,9.59294319152832,1430,1559,-0.005329249624410167,0.1055191425633213,-0.5389203682684781,0.0433349609375,-0.062255859375,-1.3240966796875,-0.8204052350373504,-0.5710663890946263,0.0,0.028608208083256013
1752506877.1499803,0.5,0.5,8.01937198638916,9.442241668701172,1438,1569,-0.07754058203516792,-0.04636447173236845,-0.545715161539601,0.066650390625,-0.2120361328125,-1.13818359375,-0.9495485904537837,-0.2984764135796004,0.0,0.09627722941532807
1752506877.2000484,0.5,0.5,7.754975318908691,9.268827438354492,1447,1579,0.029177641693645662,-0.06421745797414251,-0.446591118525572,0.048583984375,-0.079345703125,-1.444091796875,-0.8523862210909465,-0.5219226399910718,0.0,0.032163456888931304
1752506877.2500603,0.5,0.5,7.787154674530029,9.22616195678711,1455,1589,0.00159877488732305,0.03384073511500456,-0.3807748856641064,0.1309814453125,0.0181884765625,-1.4224853515625,0.13739550887082005,-0.9894320873717445,0.0,0.046331615785779004
1752506877.3000906,0.5,0.5,7.740415096282959,9.007089614868164,1463,1599,-0.14482235854334627,-0.18812251174167888,-0.4699065856323664,0.0689697265625,-0.0211181640625,-1.23486328125,-0.2926528539693994,-0.9557737716341658,0.0,0.02916855361116447
1752506877.3500602,0.5,0.5,7.95291805267334,9.541407585144043,1472,1609,-0.05808882090607082,0.07367687605747056,-0.4336676881863773,0.0062255859375,0.0140380859375,-1.349365234375,0.9141242478138517,-0.4053942316391864,0.0,0.00569003624184285
1752506877.4000914,0.5,0.5,7.981739521026611,9.62973403930664,1480,1619,-0.022782542144353463,-0.02011791733214838,-0.5880826960536619,0.0355224609375,-0.20751953125,-1.3961181640625,-0.9829047326925716,-0.16825016306678725,0.0,0.0747674332750818
1752506877.4500585,0.5,0.5,8.129264831542969,10.405141830444336,1489,1630,-0.21490199110433997,0.3017687599822257,-0.7185160806111007,0.141357421875,-0.026123046875,-1.2125244140625,-0.18140812589537422,-0.9816383634899222,0.0,0.058967916564480596
1752506877.5000918,0.5,0.5,8.01754379272461,10.329408645629883,1498,1641,-0.1883889742228994,-0.04063552838612752,-0.6681546716604246,0.096435546875,0.00390625,-1.4007568359375,0.040449199368153145,-0.9985896094012807,0.0,0.0343897407124956
1752506877.550012,0.5,0.5,7.952326774597168,9.7386474609375,1506,1651,-0.07887289444127048,-0.04862940282274277,-0.7149188371146239,0.045166015625,-0.136962890625,-1.292724609375,-0.9482291652711243,-0.3126958922908343,0.0,0.05552232950503456
1752506877.6000025,0.5,0.5,7.925389289855957,9.974957466125488,1515,1662,0.13336447185086442,0.16174272610084856,-0.6292511494022305,0.056884765625,0.0462646484375,-1.2791748046875,0.6307100455862291,-0.7754904518289784,0.0,0.028625120413784066
1752506877.6500366,0.5,0.5,7.706434726715088,9.706843376159668,1523,1672,0.03743797861148142,-0.10445329263843926,-0.6261868308681946,0.0203857421875,-0.072509765625,-1.132080078125,-0.9621462691984488,-0.27050240228306555,0.0,0.03321154959644208
1752506877.7000992,0.5,0.5,7.575721740722656,9.859050750732422,1531,1683,0.08979785617131131,-0.057689127184240054,-0.7190490055735417,0.0423583984375,-0.0567626953125,-1.2513427734375,-0.801125219131477,-0.5978289269647796,0.0,0.02826583371640338
1752506877.7500544,0.5,0.5,7.592668533325195,9.507351875305176,1539,1693,0.19518376749402233,-0.09899081177341885,-0.5162710573647349,0.105224609375,0.1474609375,-1.6214599609375,0.8127472974349559,-0.5799570946928244,0.0,0.05560214768903806
1752506877.800082,0.5,0.5,7.64657735824585,9.438765525817871,1547,1703,-0.22462787166888853,0.18412557452337125,-0.6578958661334351,0.048583984375,-0.03271484375,-1.328857421875,-0.5584063968312076,-0.8292751714135099,0.0,0.02202239894020945
1752506877.8500245,0.5,0.5,7.621926307678223,9.216826438903809,1556,1713,0.12870137842950552,-0.23528637091770885,-0.4383307816077362,0.1982421875,-0.0244140625,-1.3916015625,-0.12191892006349672,-0.9899816309155933,0.0,0.07121900996400253
1752506877.9000196,0.5,0.5,7.321103096008301,8.46537971496582,1563,1722,-0.17346707527455094,0.1377611027910028,-0.4824303222497303,0.064208984375,-0.0855712890625,-1.4779052734375,-0.7993410242925648,-0.5997908399113968,0.0,0.03612305692068006
1752506877.9500825,0.5,0.5,7.638089179992676,8.854707717895508,1572,1732,-0.02078407353519965,-0.17066921922173559,-0.136828484106731,0.19873046875,0.0806884765625,-1.31787109375,0.37497048098672636,-0.9235279017343275,0.0,0.08058134465726767
1752506878.0000606,0.5,0.5,7.42141580581665,8.111608505249023,1580,1740,-0.16720520696586896,-0.08180398173469605,-0.3372082699845533,0.00927734375,0.0166015625,-1.159423828125,0.8729141288294844,-0.48780495434588833,0.0,0.008200622261040381
1752506878.0500987,0.5,0.5,8.121247291564941,9.284154891967773,1588,1750,-0.15041807064897697,0.005995405827461438,-0.5174701385302272,0.10400390625,-0.0184326171875,-1.140869140625,-0.17432462350868355,-0.983606484962903,0.0,0.0461433459718516
1752506878.100098,0.5,0.5,7.447495937347412,9.373688697814941,1596,1760,0.06035375199644513,-0.13030015331682857,-0.7603506901627206,0.065185546875,-0.091796875,-1.289794921875,-0.8145695049989631,-0.5784310048795829,0.0,0.04352119161672992
1752506878.1501033,0.5,0.5,7.38870096206665,9.969463348388672,1604,1771,-0.06501684541780403,-0.012257274136143382,-1.0566569692799257,0.10888671875,-0.052001953125,-1.3157958984375,-0.43050384251159846,-0.9014305810336757,0.0,0.04570939903388145
1752506878.2000978,0.5,0.5,7.060498237609863,10.103524208068848,1612,1782,0.11551148560909036,-0.288845329643031,-1.0837029111238075,-0.0390625,0.0406494140625,-1.2392578125,0.7208548139398387,0.6927133347169622,-0.0,0.022728245094297918
1752506878.2501,0.5,0.5,7.400375843048096,10.166543960571289,1620,1793,-0.1825267996360482,-0.009725880564548555,-0.8474839215218268,0.1318359375,0.0335693359375,-1.3753662109375,0.24645612222557117,-0.9679004072858794,0.0,0.04927658057701717
1752506878.300099,0.5,0.5,7.573012351989746,10.282828330993652,1628,1804,-0.08207044421591657,-0.09672588068304452,-0.9026416551344719,0.0616455078125,-0.01513671875,-1.2861328125,-0.23838861090888122,-0.9708568428143953,0.0,0.024654836227369345
1752506878.3500419,0.5,0.5,7.502284049987793,9.957635879516602,1636,1815,-0.06661562030512709,0.03863705977697371,-0.8618728955077342,0.0909423828125,0.0203857421875,-1.4111328125,0.21861405045731389,-0.9752542969502924,0.0,0.032968973636402416
1752506878.4000747,0.5,0.5,7.517735958099365,10.043402671813965,1644,1825,-0.26819448734844165,-0.050094946469455566,-0.913166923142682,0.1490478515625,-0.0020751953125,-1.36328125,-0.01390102913276311,-0.9984209747708092,0.0,0.05442718554874434
1752506878.4500728,0.5,0.5,7.6718220710754395,10.074164390563965,1652,1836,-0.01732006127933304,0.03290811643073278,-0.8000535998645762,-0.0146484375,-0.111083984375,-1.186767578125,-0.9903192449209725,0.13059154878078758,0.0,0.047049341400175464
1752506878.5000577,0.5,0.5,7.873064994812012,9.544315338134766,1661,1846,0.003464012255866608,-0.1650735071161049,-0.5746263407520262,0.0489501953125,-0.074951171875,-1.3038330078125,-0.8367659972875979,-0.5464872392708906,0.0,0.03426898156310039
1752506878.55006,0.5,0.5,7.777004241943359,9.2792387008667,1669,1856,-0.0255803981971688,0.0095926493239383,-0.3476003067521531,0.0635986328125,0.0361328125,-1.2769775390625,0.493778592084204,-0.8691170489049672,0.0,0.028605197116299764
1752506878.6000707,0.5,0.5,7.888488292694092,9.267250061035156,1677,1866,-0.018652373685435583,-0.029177641693645662,-0.37731087340823977,0.02001953125,-0.0333251953125,-1.2406005859375,-0.8571105941836158,-0.5148942763593882,0.0,0.015662487367947807
1752506878.650073,0.5,0.5,7.667868137359619,8.79116439819336,1686,1876,-0.08620061267483445,0.019984686091538122,-0.3126937217122665,0.0902099609375,0.162109375,-1.3841552734375,0.8718773745774421,-0.4851787498589832,0.0,0.06656894460047748
1752506878.7000942,0.5,0.5,7.771847724914551,8.976297378540039,1694,1885,-0.036105666205378875,0.1220398163989928,-0.4223430327345057,0.0137939453125,-0.0927734375,-1.1634521484375,-0.9883264905656045,-0.1469485439919912,0.0,0.04021036514270944
1752506878.7500901,0.5,0.5,7.731085777282715,8.8696928024292,1702,1895,-0.01572128639200999,-0.057422664703019544,-0.5920796332719694,0.0704345703125,-0.10498046875,-1.2401123046875,-0.8293415173774292,-0.5564302971241589,0.0,0.05077373333155223
1752506878.8000977,0.5,0.5,7.3505659103393555,8.814811706542969,1710,1904,-0.017719755001163805,-0.05249310880044014,-0.5567733545102521,0.07470703125,0.0166015625,-1.435791015625,0.21685356996433328,-0.9758410648394997,0.0,0.02662227200362946
1752506878.8500583,0.5,0.5,7.7643938064575195,9.154958724975586,1718,1914,-0.1973154673437864,0.036105666205378875,-0.5475803989081446,0.034912109375,-0.13818359375,-1.3145751953125,-0.9681217338748692,-0.24459612710972847,0.0,0.05397261344458594
1752506878.9000666,0.5,0.5,7.597280979156494,8.923985481262207,1726,1924,-0.014788667707738212,0.00159877488732305,-0.4681745795044331,0.06787109375,-0.0250244140625,-1.2933349609375,-0.3458049693290429,-0.9378905509607215,0.0,0.027932733592215032
1752506878.950012,0.5,0.5,7.63362979888916,8.853604316711426,1735,1933,-0.1055191425633213,0.06648238906451683,-0.375845329761527,0.0528564453125,0.0191650390625,-1.3408203125,0.34079645508937007,-0.9399035990681353,0.0,0.020952342525005135
1752506878.9999638,0.5,0.5,7.524155139923096,8.74545955657959,1743,1942,-0.0738101072980808,-0.10911638605979816,-0.4346003068706491,-0.0401611328125,-0.1173095703125,-1.142822265625,-0.9447115657582728,0.32342362657073026,0.0,0.05401125159065838
1752506879.0500362,0.5,0.5,7.589865684509277,8.654484748840332,1751,1952,0.01372281778285618,-0.10272128651050597,-0.4773675351065407,0.1346435546875,0.0001220703125,-1.2899169921875,0.0009053923527070425,-0.9986477650358679,0.0,0.05197905014093222
1752506879.1000814,0.5,0.5,7.551307201385498,8.526103019714355,1759,1961,-0.08100459429103453,-0.09605972447999325,-0.3422710571277429,0.137939453125,0.0625,-1.3873291015625,0.4120997624103849,-0.9095170537572947,0.0,0.05433704763745168
1752506879.1500564,0.5,0.5,7.481080055236816,8.602192878723145,1767,1970,0.04383307816077362,-0.032508422708902016,-0.4118177647262956,0.00048828125,-0.12060546875,-1.31298828125,-0.9989431899748129,-0.004044304412853493,0.0,0.04578369583990391
1752506879.200095,0.5,0.5,7.481574058532715,8.797161102294922,1775,1980,0.14482235854334627,-0.09312863718656766,-0.4030245028460189,0.0428466796875,-0.0343017578125,-1.27587890625,-0.6248218563170946,-0.7804714290651253,0.0,0.021494098759919474
1752506879.2500718,0.5,0.5,7.344067096710205,8.451273918151855,1783,1989,-0.09086370609619333,0.03743797861148142,-0.2932419605831694,0.0904541015625,0.0599365234375,-1.3614501953125,0.5519248361656575,-0.832945628510697,0.0,0.039756196604205644
1752506879.3000717,0.5,0.5,7.396612644195557,8.39999771118164,1791,1998,0.017986217482384312,-0.07940581940371148,-0.3177565088554562,0.020751953125,-0.20947265625,-1.1514892578125,-0.9910648385158398,-0.09818241407208203,0.0,0.09028122409754295
1752506879.3500502,0.5,0.5,7.34873104095459,8.232763290405273,1799,2006,0.006928024511733216,-0.006528330789902454,-0.35093108776740944,0.0084228515625,-0.0697021484375,-1.231201171875,-0.9923751267921318,-0.11991923598714027,0.0,0.028477790724722264
1752506879.4000978,0.5,0.5,7.211668968200684,8.174800872802734,1806,2015,0.03130934154340973,-0.11258039831566477,-0.3322787140819739,0.1229248046875,-0.031982421875,-1.2222900390625,-0.2514584985994375,-0.9664836186627235,0.0,0.051749766557194696
1752506879.4500525,0.5,0.5,7.137493133544922,8.139707565307617,1814,2024,-0.19718223610317617,0.010791730489430587,-0.18066156226750466,0.11865234375,0.1187744140625,-1.5439453125,0.7064330168610131,-0.7057069808724613,0.0,0.05412993475446933
1752506879.5001013,0.5,0.5,7.123314380645752,8.020633697509766,1822,2033,-0.06728177650817835,0.06435068921475276,-0.30043644757612314,0.027587890625,-0.17333984375,-0.973388671875,-0.9836440986079766,-0.15655180724324136,0.0,0.08908321347243864
1752506879.5500047,0.5,0.5,7.299161911010742,8.265764236450195,1830,2041,-0.06261868308681946,-0.0607534457182759,-0.42101072032840314,0.0635986328125,-0.071533203125,-1.2774658203125,-0.7468165111274924,-0.6639785022140333,0.0,0.037385121438467186
1752506879.599951,0.5,0.5,7.1694207191467285,8.294530868530273,1837,2050,0.01705359879811253,-0.0010658499248820332,-0.5330581936816269,0.095947265625,-0.048828125,-1.27783203125,-0.45315159131456456,-0.8904428769331194,0.0,0.042013309892787516
1752506879.6500888,0.5,0.5,7.31458854675293,8.621520042419434,1845,2060,-0.1345635530163567,0.009992343045769061,-0.2680612561078314,0.125732421875,0.0633544921875,-1.454833984375,0.449462498931831,-0.8919968668589324,0.0,0.04821878853519523
1752506879.7000918,0.5,0.5,7.825553894042969,8.762628555297852,1853,2069,-0.11577794809031088,-0.09685911192365478,-0.40209188416174707,-0.0498046875,-0.151611328125,-1.1358642578125,-0.9477384312608872,0.3113343638924654,0.0,0.06973363443006889
1752506879.7500963,0.5,0.5,7.925023555755615,9.45561695098877,1862,2079,0.20371056689307862,0.05862174586851183,-0.551977029848283,0.109375,-0.0662841796875,-1.437744140625,-0.5177707066338085,-0.8543693428064317,0.0,0.04434547806070893
1752506879.8000932,0.5,0.5,7.902907848358154,9.586372375488281,1870,2090,-0.07887289444127048,-0.02131699849764067,-0.6842756517742654,0.1900634765625,-0.046875,-1.339111328125,-0.23882280109332865,-0.9683518263081061,0.0,0.07251489615032244
1752506879.850092,0.5,0.5,7.577362537384033,9.823746681213379,1879,2100,-0.0073277182335639785,0.11684379801519292,-0.8333614100171397,0.101318359375,0.0325927734375,-1.193115234375,0.3059289804043573,-0.9510151825303991,0.0,0.044470007256825365
1752506879.9000955,0.5,0.5,7.483862400054932,9.641776084899902,1887,2110,-0.16547320083793565,-0.10565237380393155,-0.7707427269303204,0.0679931640625,-0.008544921875,-1.1324462890625,-0.12463549325343456,-0.9917424248880436,0.0,0.030215170008730217
1752506879.950101,0.5,0.5,7.645641803741455,9.948677062988281,1895,2121,0.021583460978861175,0.031176110302799476,-0.7113215936181471,-0.09375,-0.2164306640625,-1.15673828125,-0.9129753799446285,0.39546818488295243,0.0,0.1004035375887935
1752506880.0000947,0.5,0.5,7.76218843460083,9.695353507995605,1903,2131,0.015188361429568975,-0.2206309344505809,-0.6852082704585372,0.07666015625,-0.04541015625,-1.1390380859375,-0.5092639764617023,-0.8597252075751318,0.0,0.039022682356691235
1752506880.0500777,0.5,0.5,7.282601833343506,9.161664962768555,1911,2141,0.006128637068071691,-0.050894333913117096,-0.5002833084915044,0.06396484375,0.0728759765625,-1.50439453125,0.7511728185337937,-0.659320865848757,0.0,0.03217751625656337
1752506880.1000938,0.5,0.5,7.430148124694824,9.022435188293457,1919,2151,-0.018652373685435583,-0.06834762643306039,-0.43380091942698756,0.027587890625,-0.15478515625,-1.255615234375,-0.982576145375818,-0.1751279249644597,0.0,0.0622441036246984
1752506880.1500268,0.5,0.5,7.185276031494141,8.683817863464355,1926,2160,-0.03810413481453269,0.07620826962906538,-0.47123889803846897,0.00732421875,-0.031982421875,-1.138427734375,-0.9746649084565824,-0.22320570422669825,0.0,0.014405895459353064
1752506880.200091,0.5,0.5,7.532901287078857,8.814373970031738,1935,2169,-0.21583460978861177,-0.1229724350832646,-0.4128836146511776,0.0501708984375,-0.0107421875,-1.211669921875,-0.2093197373439673,-0.9776183187314837,0.0,0.021158223906540007
1752506880.2500918,0.5,0.5,7.58676815032959,8.680853843688965,1943,2179,0.05169372135677862,0.05595712105630675,-0.2610000003554879,0.0035400390625,0.0267333984375,-1.2171630859375,0.9912852985485053,-0.13126608976213086,0.0,0.011075674253093123
1752506880.300098,0.5,0.5,7.836092948913574,9.1784086227417,1951,2189,-0.0752756509447936,-0.1781301686959098,-0.6545650851181787,-0.067138671875,-0.053466796875,-1.0341796875,-0.6224252199872526,0.7815841803492898,0.0,0.041388579965358524
1752506880.3500755,0.5,0.5,7.100284099578857,9.513473510742188,1959,2199,0.0668820827863476,-0.018119448722994567,-0.7770045952390022,0.0762939453125,0.0546875,-1.3751220703125,0.5822522744797093,-0.8122939097094158,0.0,0.03407188154764342
1752506880.4000936,0.5,0.5,7.059823513031006,9.70511531829834,1966,2209,-0.16387442595061263,0.08620061267483445,-0.9216937225417383,0.196044921875,0.1246337890625,-1.477783203125,0.5348717974961642,-0.841336049734417,0.0,0.07788332081074137
1752506880.4500935,0.5,0.5,7.068868637084961,9.721929550170898,1974,2220,-0.22222970933790392,0.1325650844072029,-0.8530796336274574,0.0684814453125,-0.03515625,-1.2593994140625,-0.4564901999673579,-0.8892048686864159,0.0,0.03051882760092953
1752506880.5000274,0.5,0.5,7.667342662811279,10.170388221740723,1982,2231,0.0011990811654922875,-0.12257274136143384,-0.879592650508898,0.1429443359375,-0.1700439453125,-1.182373046875,-0.7621689057521804,-0.640703365854848,0.0,0.09272408579647747
1752506880.5500898,0.5,0.5,7.332803726196289,9.961784362792969,1990,2241,-0.0750091884635731,-0.02717917308449185,-0.9607304760405427,0.0364990234375,0.006591796875,-1.6337890625,0.17771535367401134,-0.9840164953431367,0.0,0.011348566479157648
1752506880.6000721,0.5,0.5,7.731694221496582,10.65335464477539,1998,2253,0.06035375199644513,0.026779479362661087,-0.8490826964091497,0.222412109375,0.1041259765625,-1.364013671875,0.42232016686304424,-0.9020719156207111,0.0,0.08894906244110128
1752506880.6500938,0.5,0.5,7.747541904449463,10.450018882751465,2007,2264,-0.03170903526524049,-0.013856049023466432,-0.8902511497577184,0.0826416015625,0.0238037109375,-1.1612548828125,0.27659359275049217,-0.9602762168824779,0.0,0.03695364311202933
1752506880.7000957,0.5,0.5,8.142325401306152,10.762872695922852,2015,2276,-0.06395099549292199,0.020650842294589397,-0.8661362952072623,0.0185546875,0.13623046875,-1.2708740234375,0.9894137356724434,-0.134758860055745,0.0,0.05385637658788679
1752506880.7500389,0.5,0.5,8.22293472290039,10.743314743041992,2024,2287,-0.014122511504686942,-0.11058192970651096,-0.993905054952496,-0.06884765625,-0.20361328125,-1.2479248046875,-0.9438686709734373,0.3191498383867018,0.0,0.08517812285193511
1752506880.7999754,0.5,0.5,8.170318603515625,10.883580207824707,2033,2299,-0.09566003075816248,-0.08380245034384987,-0.9577993887471172,0.0601806640625,0.015380859375,-1.3428955078125,0.24755263978083902,-0.9685988207297909,0.0,0.02310876496909188
1752506880.8500636,0.5,0.5,7.814933776855469,10.653305053710938,2041,2310,-0.010125574286379316,-0.1209739664741108,-0.9350168466027637,0.0302734375,-0.123046875,-1.3177490234375,-0.9699270744816307,-0.238632851658179,0.0,0.04791484422379335
1752506880.9000957,0.5,0.5,7.9675068855285645,10.566813468933105,2050,2322,-0.0764747321102859,-0.07047932628282445,-0.7185160806111007,0.160888671875,-0.0772705078125,-1.353515625,-0.4320012608105368,-0.8994907768535348,0.0,0.06550765614438442
1752506880.9500234,0.0,0.0,8.414545059204102,10.502008438110352,2059,2333,-0.04063552838612752,0.013856049023466432,-0.6634915782390657,0.10107421875,-0.0162353515625,-1.57958984375,-0.15851204089190582,-0.9868268410413387,0.0,0.03235303220186966
1752506880.9999695,0.0,0.0,7.48078727722168,9.578779220581055,2066,2343,0.04783001537908124,-0.4304701384117312,-0.7591516089972282,-0.0841064453125,0.0240478515625,-1.2220458984375,0.2747299689114707,0.9608576070050929,-0.0,0.035722587285206046
1752506881.0500274,0.0,0.0,5.475571155548096,6.638862133026123,2070,2349,-0.14602143970883857,-0.4668422670983306,-0.8112450240758377,-0.2764892578125,0.0587158203125,-1.51318359375,0.2068447600882642,0.9740195043657347,-0.0,0.09220222523972386
1752506881.100075,0.0,0.0,4.221112251281738,5.268964767456055,2072,2354,-0.04063552838612752,0.30243491618527696,-0.7094563562496033,-0.15673828125,-0.0003662109375,-1.398193359375,-0.0023328034758787683,0.9984398876761128,0.0,0.05578842823788919
1752506881.1500463,0.0,0.0,4.221112251281738,4.432122230529785,2072,2357,-0.06368453301170149,0.05515773361264523,-0.4681745795044331,-0.0037841796875,-0.0394287109375,-1.302734375,-0.9953109949324151,0.09552520384800268,0.0,0.015197328595621803
1752506881.2000966,0.0,0.0,0.0,4.432122230529785,2072,2357,0.002797856052815337,-0.01705359879811253,-0.01851914244482533,0.0140380859375,0.0013427734375,-1.2593994140625,0.09521608458014008,-0.995440884246919,0.0,0.005598500418801181
1752506881.2500508,0.0,0.0,0.0,0.0,2072,2357,-0.06967993883916293,0.008393568158446012,-0.0433001531983326,0.07080078125,-0.0128173828125,-1.28466796875,-0.17806919988046604,-0.98362034219686,0.0,0.027971100630162817
1752506881.300074,0.0,0.0,0.0,0.0,2072,2357,-0.015188361429568975,-0.02078407353519965,-0.06488361417719378,0.0491943359375,-0.029052734375,-1.3028564453125,-0.5083912729907601,-0.8608474076272115,0.0,0.021910142134269943
1752506881.3500693,0.0,0.0,0.0,0.0,2072,2357,-0.05196018383799912,-0.00479632466196915,-0.035705972483548114,0.0574951171875,-0.0260009765625,-1.2982177734375,-0.4119316720005144,-0.9108911620293065,0.0,0.024281444350788318
1752506881.400071,0.0,0.0,0.0,0.0,2072,2357,-0.022382848422522698,-0.018385911204215073,-0.04583154676992743,0.0584716796875,-0.029541015625,-1.2938232421875,-0.45079220605801645,-0.8922705235611152,0.0,0.025292286201925477
1752506881.4500782,0.0,0.0,0.0,0.0,2072,2357,-0.044632465604435144,-0.010258805526989571,-0.03437366007744557,0.051513671875,-0.02197265625,-1.294677734375,-0.3922486875019558,-0.9196052562545852,0.0,0.021613417636536864
1752506881.500076,0.0,0.0,0.0,0.0,2072,2357,-0.028644716731204646,-0.015454823910789483,-0.041035222107958284,0.0565185546875,-0.0223388671875,-1.2916259765625,-0.3674765259906233,-0.9297356914407573,0.0,0.023506316322208017
1752506881.550071,0.0,0.0,0.0,0.0,2072,2357,-0.041168453348568536,-0.011724349173702367,-0.039969372183076245,0.053955078125,-0.0240478515625,-1.2955322265625,-0.4069912748872252,-0.9131479365490027,0.0,0.02278043331391263
1752506881.6001096,0.0,0.0,0.0,0.0,2072,2357,-0.029843797896696934,-0.015854517632620246,-0.04063552838612752,0.056640625,-0.026123046875,-1.2894287109375,-0.41868764376137685,-0.9078087229218638,0.0,0.024165668799378155
1752506881.6500833,0.0,0.0,0.0,0.0,2072,2357,-0.03757120985209167,-0.013323124061025418,-0.03983614094246599,0.0545654296875,-0.0216064453125,-1.2952880859375,-0.3680664992377604,-0.9295238709563779,0.0,0.022636816497259918
1752506881.700084,0.0,0.0,0.0,0.0,2072,2357,-0.03464012255866608,-0.012656967857974145,-0.04023583466429676,0.0538330078125,-0.0208740234375,-1.2947998046875,-0.3614381153033937,-0.9321298763087522,0.0,0.022279643142591236
1752506881.7500489,0.0,0.0,0.0,0.0,2072,2357,-0.037837672333312186,-0.013856049023466432,-0.04170137831100955,0.053466796875,-0.024169921875,-1.2958984375,-0.4118157299204712,-0.9109863116422545,0.0,0.02262177248826047
1752506881.800094,0.0,0.0,0.0,0.0,2072,2357,-0.035705972483548114,-0.013589586542245924,-0.041168453348568536,0.051513671875,-0.027587890625,-1.2916259765625,-0.47198484873679286,-0.8813168414465777,0.0,0.022603706455681362
1752506881.8500762,0.0,0.0,0.0,0.0,2072,2357,-0.03543951000232761,-0.012257274136143382,-0.03970290970185574,0.0562744140625,-0.0245361328125,-1.2928466796875,-0.399558633116599,-0.9164006461032446,0.0,0.02372244767200426
1752506881.9000967,0.0,0.0,0.0,0.0,2072,2357,-0.03543951000232761,-0.0127901990985844,-0.03943644722063524,0.0537109375,-0.02490234375,-1.2945556640625,-0.42051679704129835,-0.9069970132263296,0.0,0.022848225415653563
1752506881.9500418,0.0,0.0,0.0,0.0,2072,2357,-0.036638591167819895,-0.013189892820415163,-0.03903675349880447,0.05908203125,-0.02490234375,-1.2991943359375,-0.3882793945154297,-0.9212118967915096,0.0,0.02465264700838952
1752506882.0000834,0.0,0.0,0.0,0.0,2072,2357,-0.03530627876171736,-0.014655436467127957,-0.04036906590490701,0.060546875,-0.0211181640625,-1.296142578125,-0.32923209839488865,-0.943925553779565,0.0,0.024713848515359724
1752506882.050084,0.0,0.0,0.0,0.0,2072,2357,-0.03530627876171736,-0.013589586542245924,-0.04063552838612752,0.052978515625,-0.0244140625,-1.294677734375,-0.41842123422370814,-0.9079740782654466,0.0,0.022510973962083
1752506882.1000786,0.0,0.0,0.0,0.0,2072,2357,-0.03437366007744557,-0.01572128639200999,-0.041035222107958284,0.0540771484375,-0.0208740234375,-1.2891845703125,-0.36001687164186175,-0.9326752873528935,0.0,0.022464649883869637
1752506882.1500707,0.0,0.0,0.0,0.0,2072,2357,-0.0369050536490404,-0.014655436467127957,-0.04063552838612752,0.05712890625,-0.02294921875,-1.294677734375,-0.37265248854548144,-0.927666833187688,0.0,0.023756459845403165
1752506882.2000782,0.0,0.0,0.0,0.0,2072,2357,-0.03437366007744557,-0.013589586542245924,-0.041168453348568536,0.05224609375,-0.023681640625,-1.2921142578125,-0.41273915132186445,-0.9105791585863813,0.0,0.022180823118742046
1752506882.2500708,0.0,0.0,0.0,0.0,2072,2357,-0.03530627876171736,-0.012390505376753637,-0.04036906590490701,0.0556640625,-0.022705078125,-1.2926025390625,-0.3775818896114894,-0.9256846325959096,0.0,0.023235266583212837
1752506882.3000953,0.0,0.0,0.0,0.0,2072,2357,-0.035705972483548114,-0.01212404289553313,-0.041035222107958284,0.0531005859375,-0.024658203125,-1.291259765625,-0.4210644882929395,-0.9067477841951916,0.0,0.022652870805151375
1752506882.3500712,0.0,0.0,0.0,0.0,2072,2357,-0.03503981628049684,-0.013323124061025418,-0.0415681470703993,0.057373046875,-0.0238037109375,-1.29052734375,-0.38310872019635206,-0.9233902486783869,0.0,0.024044898735070246
1752506882.400096,0.0,0.0,0.0,0.0,2072,2357,-0.03384073511500456,-0.013189892820415163,-0.04023583466429676,0.05078125,-0.0225830078125,-1.2960205078125,-0.40624896533365423,-0.9135111869124334,0.0,0.02142637512909211
1752506882.450059,0.0,0.0,0.0,0.0,2072,2357,-0.03490658503988659,-0.013056661579804908,-0.0430336907171121,0.056396484375,-0.0224609375,-1.2901611328125,-0.36990120471557253,-0.9287736770575789,0.0,0.023506500269337257
1752506882.5000982,0.0,0.0,0.0,0.0,2072,2357,-0.03464012255866608,-0.013589586542245924,-0.041434915829789046,0.0582275390625,-0.0242919921875,-1.282470703125,-0.38491120938529566,-0.9226263662150052,0.0,0.024575379029510933
1752506882.5500596,0.0,0.0,0.0,0.0,2072,2357,-0.035173047521107094,-0.010658499248820334,-0.04223430327345057,0.0552978515625,-0.025146484375,-1.2933349609375,-0.4138403574020063,-0.9100469995296546,0.0,0.023465234549274763
1752506882.6000028,0.0,0.0,0.0,0.0,2072,2357,-0.035173047521107094,-0.013323124061025418,-0.04036906590490701,0.054443359375,-0.0233154296875,-1.311279296875,-0.39357028490801554,-0.9190175239213346,0.0,0.022565938113062144
1752506882.6500633,0.0,0.0,0.0,0.0,2072,2357,-0.03490658503988659,-0.012656967857974145,-0.03930321598002497,0.060791015625,-0.02587890625,-1.28759765625,-0.39155961248760335,-0.9197956934850307,0.0,0.025631077132057464
1752506882.7000933,0.0,0.0,0.0,0.0,2072,2357,-0.03477335379927634,-0.013323124061025418,-0.040502297145517265,0.0546875,-0.0262451171875,-1.289794921875,-0.4325462028395874,-0.9013055761494659,0.0,0.023495548747238294
1752506882.7500906,0.0,0.0,0.0,0.0,2072,2357,-0.06808116395183987,-0.013856049023466432,-0.041301684589178794,0.0548095703125,-0.024169921875,-1.2816162109375,-0.40337967104508404,-0.9147347085820341,0.0,0.02335067242931368
1752506882.8000975,0.0,0.0,0.0,0.0,2072,2357,-0.03410719759622506,-0.012523736617363892,-0.0430336907171121,0.05615234375,-0.0235595703125,-1.2969970703125,-0.3867852083818752,-0.9218714811174227,0.0,0.023455806943248232
1752506882.8500323,0.0,0.0,0.0,0.0,2072,2357,-0.03424042883683532,-0.012390505376753637,-0.041035222107958284,0.05712890625,-0.0238037109375,-1.298583984375,-0.38450635233467545,-0.922815245603221,0.0,0.023809399331972254
1752506882.9000895,0.0,0.0,0.0,0.0,2072,2357,-0.03503981628049684,-0.013189892820415163,-0.040901990867348026,0.05859375,-0.0262451171875,-1.2918701171875,-0.4086569334707926,-0.9123503630975835,0.0,0.024825907474967174
1752506882.9500895,0.0,0.0,0.0,0.0,2072,2357,-0.03477335379927634,-0.014122511504686942,-0.04063552838612752,0.0572509765625,-0.0235595703125,-1.2945556640625,-0.38044283336387713,-0.9244957971381264,0.0,0.023890827026396978
1752506883.0000732,0.0,0.0,0.0,0.0,2072,2357,-0.035705972483548114,-0.01372281778285618,-0.04170137831100955,0.057373046875,-0.02587890625,-1.293701171875,-0.4110495035697377,-0.9112889937630977,0.0,0.02430381577680939
1752506883.0500739,0.0,0.0,0.0,0.0,2072,2357,-0.06754823898939886,-0.012656967857974145,-0.03970290970185574,0.0555419921875,-0.023681640625,-1.295166015625,-0.3921042334457277,-0.9196259083392067,0.0,0.023290745484576013
1752506883.1001012,0.0,0.0,0.0,0.0,2072,2357,-0.03543951000232761,-0.013056661579804908,-0.0401026034236865,0.0552978515625,-0.0223388671875,-1.2958984375,-0.37446555184922836,-0.9269557103153031,0.0,0.02299264212970739
1752506883.1500893,0.0,0.0,0.0,0.0,2072,2357,-0.03477335379927634,-0.014522205226517705,-0.041168453348568536,0.0582275390625,-0.0235595703125,-1.28857421875,-0.3749622574594701,-0.9267201907158924,0.0,0.024351459923341548
1752506883.2000797,0.0,0.0,0.0,0.0,2072,2357,-0.035705972483548114,-0.012257274136143382,-0.03956967846124549,0.0595703125,-0.0213623046875,-1.298828125,-0.3374580327875957,-0.9410258285734097,0.0,0.02434062581064878
1752506883.2500994,0.0,0.0,0.0,0.0,2072,2357,-0.035173047521107094,-0.012257274136143382,-0.041301684589178794,0.053466796875,-0.02490234375,-1.2904052734375,-0.4220954382712016,-0.9062637351116976,0.0,0.022836011298760384
1752506883.3000956,0.0,0.0,0.0,0.0,2072,2357,-0.03530627876171736,-0.014522205226517705,-0.04023583466429676,0.053955078125,-0.02490234375,-1.296142578125,-0.41894823041569657,-0.9077211659006759,0.0,0.022905571537819792
1752506883.3500922,0.0,0.0,0.0,0.0,2072,2357,-0.03703828488965066,-0.01345635530163567,-0.0401026034236865,0.055419921875,-0.0244140625,-1.294677734375,-0.4030337887273422,-0.9148867004110668,0.0,0.023368580509632607
1752506883.4000785,0.0,0.0,0.0,0.0,2072,2357,-0.035173047521107094,-0.011191424211261349,-0.041834609551619814,0.05859375,-0.0216064453125,-1.29150390625,-0.34587613359544545,-0.9379691758520554,0.0,0.024156269589519826
1752506883.4500859,0.0,0.0,0.0,0.0,2072,2357,-0.03543951000232761,-0.014122511504686942,-0.040502297145517265,0.0546875,-0.0242919921875,-1.2965087890625,-0.40584124507521985,-0.9136526522296408,0.0,0.023058943374289376
1752506883.5001042,0.0,0.0,0.0,0.0,2072,2357,-0.036638591167819895,-0.013189892820415163,-0.040901990867348026,0.056884765625,-0.023193359375,-1.29296875,-0.3774429833281619,-0.9257285801627548,0.0,0.023735842226201297
1752506883.5500903,0.0,0.0,0.0,0.0,2072,2357,-0.03557274124293786,-0.01438897398590745,-0.041168453348568536,0.0552978515625,-0.0223388671875,-1.293701171875,-0.3744652156897996,-0.9269548781829468,0.0,0.02303163153643207
1752506883.600103,0.0,0.0,0.0,0.0,2072,2357,-0.03530627876171736,-0.012923430339194655,-0.03943644722063524,0.0531005859375,-0.02197265625,-1.2935791015625,-0.3822575956829856,-0.9237891895672153,0.0,0.022196030758014296
1752506883.650099,0.0,0.0,0.0,0.0,2072,2357,-0.03543951000232761,-0.012656967857974145,-0.03956967846124549,0.0594482421875,-0.0223388671875,-1.2904052734375,-0.35164898418294444,-0.9358090453393111,0.0,0.024585007305885396
1752506883.7000701,0.0,0.0,0.0,0.0,2072,2357,-0.03543951000232761,-0.01212404289553313,-0.0415681470703993,0.0540771484375,-0.023681640625,-1.292724609375,-0.4010398020609739,-0.9157764552217084,0.0,0.022815810843736274
1752506883.7500896,0.0,0.0,0.0,0.0,2072,2357,-0.03410719759622506,-0.011724349173702367,-0.04023583466429676,0.0576171875,-0.024169921875,-1.2919921875,-0.3867209617217785,-0.9218802723872699,0.0,0.02415908003537984
1752506883.8000271,0.0,0.0,0.0,0.0,2072,2357,-0.035972434964768624,-0.013589586542245924,-0.040768759626737774,0.0545654296875,-0.023193359375,-1.2899169921875,-0.39108107898516975,-0.9200696963493203,0.0,0.022963961319095883
1752506883.8500257,0.0,0.0,0.0,0.0,2072,2357,-0.03543951000232761,-0.013589586542245924,-0.040768759626737774,0.057373046875,-0.0238037109375,-1.29541015625,-0.3831095525619923,-0.923392254893007,0.0,0.023954422125321676
1752506883.9000862,0.0,0.0,0.0,0.0,2072,2357,-0.03557274124293786,-0.01345635530163567,-0.040768759626737774,0.052978515625,-0.024658203125,-1.294189453125,-0.4218629899939331,-0.9063788992938958,0.0,0.022559002375203585
1752506883.950074,0.0,0.0,0.0,0.0,2072,2357,-0.03557274124293786,-0.01185758041431262,-0.03983614094246599,0.05712890625,-0.024169921875,-1.29638671875,-0.3895286524537967,-0.9207040876180648,0.0,0.023904224750374542
1752506884.0,0.0,0.0,0.0,0.0,2072,2357,-0.036638591167819895,-0.013589586542245924,-0.041967840792230066,0.0565185546875,-0.024658203125,-1.3001708984375,-0.39977172292501173,-0.9163084540310913,0.0,0.023693598728752485
1752506884.0500464,0.0,0.0,0.0,0.0,2072,2357,-0.03557274124293786,-0.014522205226517705,-0.041434915829789046,0.05810546875,-0.022705078125,-1.2913818359375,-0.36385063263840894,-0.9311446297628099,0.0,0.024132873689417578
1752506884.1001031,0.0,0.0,0.0,0.0,2072,2357,-0.036105666205378875,-0.01345635530163567,-0.04036906590490701,0.05419921875,-0.02685546875,-1.2916259765625,-0.44386019353159106,-0.8957905724001202,0.0,0.023396132098358415
1752506884.1500707,0.0,0.0,0.0,0.0,2072,2357,-0.0005329249624410166,-0.01212404289553313,-0.041967840792230066,0.0584716796875,-0.026123046875,-1.2906494140625,-0.4077809280337158,-0.9127432921876162,0.0,0.024787038921040516
1752506884.2000995,0.0,0.0,0.0,0.0,2072,2357,-0.03477335379927634,-0.01372281778285618,-0.03983614094246599,0.0577392578125,-0.0247802734375,-1.2947998046875,-0.3942722968634163,-0.9186738739723938,0.0,0.02424188950144921
1752506884.2500472,0.0,0.0,0.0,0.0,2072,2357,-0.03450689131805583,-0.011457886692481857,-0.039969372183076245,0.0565185546875,-0.025390625,-1.292236328125,-0.4096735862184117,-0.9119176462457915,0.0,0.023953271602872358
1752506884.3000917,0.0,0.0,0.0,0.0,2072,2357,-0.03464012255866608,-0.01372281778285618,-0.040901990867348026,0.058837890625,-0.025634765625,-1.291015625,-0.3992983050813074,-0.9164846811866199,0.0,0.02483329840063261
